,time,Force_Fx1,Force_Fy1,Force_Fz1,Moment_Mx1,Moment_My1,Moment_Mz1,Force_Fx2,Force_Fy2,Force_Fz2,Moment_Mx2,Moment_My2,Moment_Mz2,Force_Fx3,Force_Fy3,Force_Fz3,Moment_Mx3,Moment_My3,Moment_Mz3,Force_Fx4,Force_Fy4,Force_Fz4,Moment_Mx4,Moment_My4,Moment_Mz4,Force_Fx5,Force_Fy5,Force_Fz5,Moment_Mx5,Moment_My5,Moment_Mz5,Raw_Pin 1,Raw_Pin 2,Raw_Pin 3,Raw_Pin 4,Raw_Pin 5,Raw_Pin 6,Raw_Pin 7,Raw_Pin 8,Raw_Pin 9,Raw_Pin 10,Raw_Pin 11,Raw_Pin 12,Raw_Pin 13,Raw_Pin 14,Raw_Pin 15,Raw_Pin 16,Raw_Pin 41,Raw_Pin 42,Raw_Pin 43,Raw_Pin 44,Raw_Pin 45,Raw_Pin 46,Raw_Pin 47,Raw_Pin 48,Raw_Pin 49,Raw_Pin 50,Raw_Pin 51,Raw_Pin 52,Raw_Pin 53,Raw_Pin 54,Raw_Pin 55,Raw_Pin 56,Raw_Pin 57,Raw_Pin 58,Raw_Pin 59,Raw_Pin 60,Raw_Pin 61,Raw_Pin 62,Raw_Pin 63,Raw_Pin 64,Voltage_EMG01_r_gastro,Voltage_EMG02_r_soleus,Voltage_EMG03_r_rect_fem,Voltage_EMG04_r_tfl,Voltage_EMG05_r_semimemb,Voltage_EMG06_l_gastro,Voltage_EMG07_l_soleus,Voltage_EMG08_l_rect_fem,Voltage_EMG09_l_tfl,Voltage_EMG10_l_semimemb,Voltage_not_used,Voltage_not_used,Voltage_not_used,Voltage_not_used,Voltage_not_used,Voltage_not_used,Voltage_not_used,Voltage_not_used,Voltage_not_used,Voltage_not_used,Voltage_not_used,Voltage_not_used,Voltage_not_used,Voltage_not_used,Voltage_not_used,Voltage_not_used,Voltage_not_used,Voltage_not_used,Voltage_not_used,Voltage_not_used,Voltage_not_used,Voltage_not_used,Voltage_not_used,Voltage_not_used,Voltage_not_used,Voltage_not_used,Voltage_not_used,Voltage_not_used,Voltage_not_used,Voltage_not_used,Voltage_not_used,Voltage_not_used,Voltage_not_used,Voltage_not_used,Voltage_not_used,Voltage_not_used
0,0.722,63.36497497558594,164.83383178710938,-915.425537109375,-25449.8046875,36132.5234375,6768.87109375,-0.0,-0.0,-0.0,-0.0,-0.0,-0.0,-0.0,-0.0,-0.0,-0.0,-0.0,-0.0,-0.0,-0.0,-0.0,-0.0,-0.0,-0.0,-0.0,-0.0,-0.0,-0.0,-0.0,-0.0,-0.3741455078125,-0.59478759765625,-1.4996337890625,-1.02294921875,1.29486083984375,0.6170654296875,0.52459716796875,0.9417724609375,-0.02166748046875,0.0091552734375,-0.0689697265625,-0.009765625,-0.0103759765625,-0.00823974609375,-0.00518798828125,-0.00030517578125,-0.0091552734375,0.00213623046875,-0.02166748046875,0.00091552734375,-0.0030517578125,-0.0048828125,-0.0048828125,-0.00640869140625,-0.0146484375,0.00579833984375,-0.01800537109375,0.01556396484375,0.0030517578125,0.00091552734375,-0.00213623046875,-0.020751953125,-0.00335693359375,-0.00732421875,0.0,-0.006103515625,-0.00335693359375,-0.00885009765625,-0.00732421875,0.00213623046875,-0.08342467993497849,0.13631561398506165,-0.11058593541383743,0.008971252478659153,0.02559204027056694,0.045738525688648224,0.0016940308269113302,0.07573028653860092,0.02863464318215847,-0.01105499267578125,0.03434997424483299,0.03434997424483299,0.03434997424483299,0.03434997424483299,0.03434997424483299,0.03434997424483299,0.03434997424483299,0.03434997424483299,0.03434997424483299,0.03434997424483299,0.03434997424483299,0.03434997424483299,0.03434997424483299,0.03434997424483299,0.03434997424483299,0.03434997424483299,0.03434997424483299,0.03434997424483299,0.03434997424483299,0.03434997424483299,0.03434997424483299,0.03434997424483299,0.03434997424483299,0.03434997424483299,0.03434997424483299,0.03434997424483299,0.03434997424483299,0.03434997424483299,0.03434997424483299,0.03434997424483299,0.03434997424483299,0.03434997424483299,0.03434997424483299,0.03434997424483299,0.03434997424483299,0.03434997424483299
1,0.723,60.59429931640625,168.5633087158203,-985.582763671875,-23824.41796875,39257.2578125,7564.158203125,-0.0,-0.0,-0.0,-0.0,-0.0,-0.0,-0.0,-0.0,-0.0,-0.0,-0.0,-0.0,-0.0,-0.0,-0.0,-0.0,-0.0,-0.0,-0.0,-0.0,-0.0,-0.0,-0.0,-0.0,-0.31646728515625,-0.6103515625,-1.517333984375,-1.06201171875,1.37603759765625,0.6500244140625,0.57281494140625,1.03759765625,-0.0299072265625,0.01220703125,-0.08636474609375,-0.0042724609375,-0.01129150390625,-0.0067138671875,-0.00640869140625,0.008544921875,-0.00946044921875,0.003662109375,-0.01739501953125,0.00244140625,0.00030517578125,-0.001220703125,-0.00457763671875,0.00579833984375,-0.015869140625,0.0018310546875,-0.03021240234375,0.01617431640625,0.00030517578125,-0.006103515625,-0.0079345703125,-0.00457763671875,0.00213623046875,-0.00579833984375,0.00244140625,-0.0091552734375,0.00152587890625,-0.006103515625,-0.00579833984375,-0.010986328125,1.108286738395691,1.4084408283233643,0.06397461146116257,0.17849640548229218,-0.013623046688735485,0.06832153350114822,-0.0024258422199636698,0.05177398771047592,0.03458557277917862,-0.01731109619140625,0.05357604846358299,0.05357604846358299,0.05357604846358299,0.05357604846358299,0.05357604846358299,0.05357604846358299,0.05357604846358299,0.05357604846358299,0.05357604846358299,0.05357604846358299,0.05357604846358299,0.05357604846358299,0.05357604846358299,0.05357604846358299,0.05357604846358299,0.05357604846358299,0.05357604846358299,0.05357604846358299,0.05357604846358299,0.05357604846358299,0.05357604846358299,0.05357604846358299,0.05357604846358299,0.05357604846358299,0.05357604846358299,0.05357604846358299,0.05357604846358299,0.05357604846358299,0.05357604846358299,0.05357604846358299,0.05357604846358299,0.05357604846358299,0.05357604846358299,0.05357604846358299,0.05357604846358299,0.05357604846358299
2,0.724,60.835227966308594,154.30706787109375,-1072.4085693359375,-25002.0,42610.875,8145.94287109375,-0.0,-0.0,-0.0,-0.0,-0.0,-0.0,-0.0,-0.0,-0.0,-0.0,-0.0,-0.0,-0.0,-0.0,-0.0,-0.0,-0.0,-0.0,-0.0,-0.0,-0.0,-0.0,-0.0,-0.0,-0.3094482421875,-0.62103271484375,-1.43096923828125,-0.931396484375,1.4935302734375,0.703125,0.6280517578125,1.13128662109375,-0.02777099609375,0.01068115234375,-0.0836181640625,0.003662109375,-0.015869140625,-0.0054931640625,-0.0091552734375,-0.00030517578125,-0.0146484375,0.0042724609375,-0.01800537109375,0.01434326171875,-0.0067138671875,-0.0018310546875,-0.00946044921875,-0.00885009765625,-0.0128173828125,0.01434326171875,-0.0189208984375,0.01953125,0.00640869140625,-0.0030517578125,-0.00274658203125,-0.00823974609375,0.00244140625,-0.00579833984375,-0.00091552734375,-0.0067138671875,-0.00579833984375,-0.006103515625,-0.00244140625,-0.00457763671875,-0.5790301561355591,0.6885311603546143,0.16163085401058197,-0.313904732465744,-0.17109374701976776,0.004844970535486937,0.047470398247241974,0.008286437951028347,0.03809509426355362,-0.00373077392578125,0.04274230822920799,0.04274230822920799,0.04274230822920799,0.04274230822920799,0.04274230822920799,0.04274230822920799,0.04274230822920799,0.04274230822920799,0.04274230822920799,0.04274230822920799,0.04274230822920799,0.04274230822920799,0.04274230822920799,0.04274230822920799,0.04274230822920799,0.04274230822920799,0.04274230822920799,0.04274230822920799,0.04274230822920799,0.04274230822920799,0.04274230822920799,0.04274230822920799,0.04274230822920799,0.04274230822920799,0.04274230822920799,0.04274230822920799,0.04274230822920799,0.04274230822920799,0.04274230822920799,0.04274230822920799,0.04274230822920799,0.04274230822920799,0.04274230822920799,0.04274230822920799,0.04274230822920799,0.04274230822920799
3,0.725,46.54015350341797,133.39389038085938,-1161.9710693359375,-29878.177734375,48342.87109375,9166.6201171875,-0.0,-0.0,-0.0,-0.0,-0.0,-0.0,-0.0,-0.0,-0.0,-0.0,-0.0,-0.0,-0.0,-0.0,-0.0,-0.0,-0.0,-0.0,-0.0,-0.0,-0.0,-0.0,-0.0,-0.0,-0.16357421875,-0.54962158203125,-1.2744140625,-0.7696533203125,1.6497802734375,0.75653076171875,0.65155029296875,1.22772216796875,-0.0372314453125,0.02410888671875,-0.09735107421875,0.0189208984375,-0.0115966796875,-0.00335693359375,-0.00579833984375,0.00244140625,-0.01312255859375,0.00701904296875,-0.01434326171875,0.00091552734375,-0.00213623046875,-0.0048828125,-0.006103515625,-0.00091552734375,-0.01495361328125,0.00091552734375,-0.0213623046875,0.01495361328125,-0.00335693359375,-0.0048828125,-0.0140380859375,-0.00518798828125,-0.00244140625,-0.00396728515625,-0.003662109375,-0.009765625,-0.00457763671875,-0.00640869140625,-0.008544921875,-0.0006103515625,-1.452901005744934,-1.1516788005828857,0.04581664875149727,0.015379943884909153,-0.13889770209789276,0.024833984673023224,0.06883270293474197,0.00035186766763217747,0.05198059231042862,-0.01181793212890625,0.025194702669978142,0.025194702669978142,0.025194702669978142,0.025194702669978142,0.025194702669978142,0.025194702669978142,0.025194702669978142,0.025194702669978142,0.025194702669978142,0.025194702669978142,0.025194702669978142,0.025194702669978142,0.025194702669978142,0.025194702669978142,0.025194702669978142,0.025194702669978142,0.025194702669978142,0.025194702669978142,0.025194702669978142,0.025194702669978142,0.025194702669978142,0.025194702669978142,0.025194702669978142,0.025194702669978142,0.025194702669978142,0.025194702669978142,0.025194702669978142,0.025194702669978142,0.025194702669978142,0.025194702669978142,0.025194702669978142,0.025194702669978142,0.025194702669978142,0.025194702669978142,0.025194702669978142,0.025194702669978142
4,0.726,33.38948440551758,95.29705810546875,-1243.15771484375,-35235.33984375,53288.70703125,9862.353515625,-0.0,-0.0,-0.0,-0.0,-0.0,-0.0,-0.0,-0.0,-0.0,-0.0,-0.0,-0.0,-0.0,-0.0,-0.0,-0.0,-0.0,-0.0,-0.0,-0.0,-0.0,-0.0,-0.0,-0.0,-0.0531005859375,-0.460205078125,-1.01104736328125,-0.45318603515625,1.79779052734375,0.80718994140625,0.6744384765625,1.304931640625,-0.04486083984375,0.03662109375,-0.098876953125,0.03326416015625,-0.0238037109375,-0.0018310546875,-0.00885009765625,-0.00335693359375,-0.01007080078125,0.00335693359375,-0.020751953125,0.00457763671875,-0.00701904296875,-0.00579833984375,-0.01190185546875,-0.0079345703125,-0.01495361328125,-0.00885009765625,-0.0213623046875,0.01739501953125,0.00091552734375,-0.0030517578125,0.0,0.0030517578125,0.001220703125,-0.00457763671875,-0.00274658203125,-0.00762939453125,-0.006103515625,-0.00732421875,-0.006103515625,-0.001220703125,-0.8945819139480591,-1.6709353923797607,-0.08510375767946243,0.07046417146921158,-0.11997680366039276,0.055504150688648224,0.058456726372241974,0.03407379239797592,0.04862365871667862,0.00588226318359375,0.030077515169978142,0.030077515169978142,0.030077515169978142,0.030077515169978142,0.030077515169978142,0.030077515169978142,0.030077515169978142,0.030077515169978142,0.030077515169978142,0.030077515169978142,0.030077515169978142,0.030077515169978142,0.030077515169978142,0.030077515169978142,0.030077515169978142,0.030077515169978142,0.030077515169978142,0.030077515169978142,0.030077515169978142,0.030077515169978142,0.030077515169978142,0.030077515169978142,0.030077515169978142,0.030077515169978142,0.030077515169978142,0.030077515169978142,0.030077515169978142,0.030077515169978142,0.030077515169978142,0.030077515169978142,0.030077515169978142,0.030077515169978142,0.030077515169978142,0.030077515169978142,0.030077515169978142,0.030077515169978142
5,0.727,29.514554977416992,57.500972747802734,-1310.992919921875,-39912.4921875,56970.72265625,10160.21875,-0.0,-0.0,-0.0,-0.0,-0.0,-0.0,-0.0,-0.0,-0.0,-0.0,-0.0,-0.0,-0.0,-0.0,-0.0,-0.0,-0.0,-0.0,-0.0,-0.0,-0.0,-0.0,-0.0,-0.0,-0.037841796875,-0.41656494140625,-0.7659912109375,-0.12298583984375,1.91741943359375,0.85540771484375,0.694580078125,1.3665771484375,-0.0469970703125,0.04608154296875,-0.0994873046875,0.0421142578125,-0.0250244140625,-0.00335693359375,-0.01190185546875,-0.00518798828125,-0.00946044921875,-0.00335693359375,-0.0250244140625,0.00518798828125,-0.0115966796875,-0.00518798828125,-0.00518798828125,-0.009765625,-0.0164794921875,0.003662109375,-0.0177001953125,0.0189208984375,-0.001220703125,0.00030517578125,-0.01495361328125,-0.00396728515625,0.0006103515625,0.0152587890625,0.00244140625,-0.00885009765625,-0.008544921875,-0.009765625,-0.00335693359375,-0.0042724609375,0.20481383800506592,-0.5163028240203857,0.03956054523587227,0.20413117110729218,-0.09937743842601776,0.006523437332361937,0.024734802544116974,0.04399200528860092,0.01139221154153347,0.04097747802734375,0.03267150744795799,0.03267150744795799,0.03267150744795799,0.03267150744795799,0.03267150744795799,0.03267150744795799,0.03267150744795799,0.03267150744795799,0.03267150744795799,0.03267150744795799,0.03267150744795799,0.03267150744795799,0.03267150744795799,0.03267150744795799,0.03267150744795799,0.03267150744795799,0.03267150744795799,0.03267150744795799,0.03267150744795799,0.03267150744795799,0.03267150744795799,0.03267150744795799,0.03267150744795799,0.03267150744795799,0.03267150744795799,0.03267150744795799,0.03267150744795799,0.03267150744795799,0.03267150744795799,0.03267150744795799,0.03267150744795799,0.03267150744795799,0.03267150744795799,0.03267150744795799,0.03267150744795799,0.03267150744795799
6,0.728,29.213394165039062,34.322052001953125,-1376.34033203125,-42831.55859375,60473.61328125,10163.5078125,-0.0,-0.0,-0.0,-0.0,-0.0,-0.0,-0.0,-0.0,-0.0,-0.0,-0.0,-0.0,-0.0,-0.0,-0.0,-0.0,-0.0,-0.0,-0.0,-0.0,-0.0,-0.0,-0.0,-0.0,-0.05645751953125,-0.39337158203125,-0.62469482421875,0.0885009765625,2.02117919921875,0.89874267578125,0.7177734375,1.436767578125,-0.05157470703125,0.04180908203125,-0.10345458984375,0.0579833984375,-0.01953125,-0.0018310546875,-0.01678466796875,0.0067138671875,-0.010986328125,0.0042724609375,-0.0201416015625,0.003662109375,-0.00457763671875,-0.0018310546875,-0.00518798828125,-0.00762939453125,-0.018310546875,0.00518798828125,-0.01617431640625,0.0189208984375,-0.0079345703125,-0.00396728515625,-0.0091552734375,-0.00274658203125,0.00152587890625,-0.00335693359375,0.0018310546875,-0.00701904296875,-0.00640869140625,-0.003662109375,-0.00335693359375,-0.001220703125,1.229899287223816,0.8089230060577393,0.06656860560178757,0.419280081987381,-0.07618407905101776,-0.015754394233226776,0.034958191215991974,0.014237365685403347,0.02298889122903347,0.09072113037109375,0.03602844104170799,0.03602844104170799,0.03602844104170799,0.03602844104170799,0.03602844104170799,0.03602844104170799,0.03602844104170799,0.03602844104170799,0.03602844104170799,0.03602844104170799,0.03602844104170799,0.03602844104170799,0.03602844104170799,0.03602844104170799,0.03602844104170799,0.03602844104170799,0.03602844104170799,0.03602844104170799,0.03602844104170799,0.03602844104170799,0.03602844104170799,0.03602844104170799,0.03602844104170799,0.03602844104170799,0.03602844104170799,0.03602844104170799,0.03602844104170799,0.03602844104170799,0.03602844104170799,0.03602844104170799,0.03602844104170799,0.03602844104170799,0.03602844104170799,0.03602844104170799,0.03602844104170799,0.03602844104170799
7,0.729,28.51068687438965,10.742107391357422,-1426.6778564453125,-42980.8359375,62374.33984375,10043.1435546875,-0.0,-0.0,-0.0,-0.0,-0.0,-0.0,-0.0,-0.0,-0.0,-0.0,-0.0,-0.0,-0.0,-0.0,-0.0,-0.0,-0.0,-0.0,-0.0,-0.0,-0.0,-0.0,-0.0,-0.0,-0.07598876953125,-0.3631591796875,-0.4791259765625,0.30181884765625,2.07611083984375,0.93780517578125,0.7421875,1.50360107421875,-0.05615234375,0.04425048828125,-0.10467529296875,0.06011962890625,-0.020751953125,-0.00152587890625,-0.0140380859375,0.003662109375,-0.0115966796875,0.010986328125,-0.02044677734375,0.00213623046875,-0.0177001953125,-0.00823974609375,-0.00518798828125,0.01190185546875,-0.01739501953125,0.006103515625,-0.03387451171875,0.018310546875,-0.0006103515625,-0.0146484375,-0.009765625,-0.00244140625,0.003662109375,-0.00885009765625,0.00152587890625,-0.00396728515625,-0.00579833984375,-0.00518798828125,0.0030517578125,-0.00518798828125,-0.3104754686355591,0.7372066974639893,0.49823975563049316,0.6000967621803284,-0.05192260816693306,0.010643310844898224,0.08271820098161697,0.015610656701028347,0.02405700646340847,0.07454681396484375,0.016192017123103142,0.016192017123103142,0.016192017123103142,0.016192017123103142,0.016192017123103142,0.016192017123103142,0.016192017123103142,0.016192017123103142,0.016192017123103142,0.016192017123103142,0.016192017123103142,0.016192017123103142,0.016192017123103142,0.016192017123103142,0.016192017123103142,0.016192017123103142,0.016192017123103142,0.016192017123103142,0.016192017123103142,0.016192017123103142,0.016192017123103142,0.016192017123103142,0.016192017123103142,0.016192017123103142,0.016192017123103142,0.016192017123103142,0.016192017123103142,0.016192017123103142,0.016192017123103142,0.016192017123103142,0.016192017123103142,0.016192017123103142,0.016192017123103142,0.016192017123103142,0.016192017123103142,0.016192017123103142
8,0.73,29.494476318359375,-25.409793853759766,-1463.0833740234375,-45584.78515625,63697.8671875,9738.720703125,-0.0,-0.0,-0.0,-0.0,-0.0,-0.0,-0.0,-0.0,-0.0,-0.0,-0.0,-0.0,-0.0,-0.0,-0.0,-0.0,-0.0,-0.0,-0.0,-0.0,-0.0,-0.0,-0.0,-0.0,-0.11962890625,-0.33447265625,-0.24505615234375,0.61798095703125,2.13714599609375,0.96771240234375,0.75897216796875,1.52984619140625,-0.05584716796875,0.0445556640625,-0.09857177734375,0.0634765625,-0.01953125,-0.00244140625,-0.0103759765625,0.0018310546875,-0.009765625,0.0079345703125,-0.02044677734375,0.0067138671875,-0.00244140625,0.01953125,-0.0030517578125,-0.00030517578125,-0.00885009765625,0.00396728515625,-0.01678466796875,0.02197265625,-0.00274658203125,-0.00640869140625,0.01251220703125,-0.00030517578125,0.0030517578125,0.01129150390625,0.0006103515625,-0.00701904296875,0.02227783203125,-0.0030517578125,-0.00396728515625,0.0018310546875,0.5441693067550659,1.7206356525421143,0.20435546338558197,-0.330231636762619,0.20228882133960724,0.0024035645183175802,0.08378631621599197,0.008591613732278347,0.01490173302590847,0.06569671630859375,0.026262817904353142,0.026262817904353142,0.026262817904353142,0.026262817904353142,0.026262817904353142,0.026262817904353142,0.026262817904353142,0.026262817904353142,0.026262817904353142,0.026262817904353142,0.026262817904353142,0.026262817904353142,0.026262817904353142,0.026262817904353142,0.026262817904353142,0.026262817904353142,0.026262817904353142,0.026262817904353142,0.026262817904353142,0.026262817904353142,0.026262817904353142,0.026262817904353142,0.026262817904353142,0.026262817904353142,0.026262817904353142,0.026262817904353142,0.026262817904353142,0.026262817904353142,0.026262817904353142,0.026262817904353142,0.026262817904353142,0.026262817904353142,0.026262817904353142,0.026262817904353142,0.026262817904353142,0.026262817904353142
9,0.731,36.64201354980469,-65.27112579345703,-1488.625244140625,-47541.8828125,63857.078125,9080.8291015625,-0.0,-0.0,-0.0,-0.0,-0.0,-0.0,-0.0,-0.0,-0.0,-0.0,-0.0,-0.0,-0.0,-0.0,-0.0,-0.0,-0.0,-0.0,-0.0,-0.0,-0.0,-0.0,-0.0,-0.0,-0.22674560546875,-0.33599853515625,0.01190185546875,0.96771240234375,2.17071533203125,0.9991455078125,0.7720947265625,1.54571533203125,-0.05645751953125,0.0433349609375,-0.09246826171875,0.06591796875,-0.02044677734375,0.00030517578125,-0.01373291015625,0.00213623046875,-0.00946044921875,-0.00335693359375,-0.02410888671875,0.006103515625,0.00457763671875,-0.00640869140625,-0.00335693359375,-0.0103759765625,-0.01373291015625,0.00213623046875,-0.02044677734375,0.01953125,-0.0042724609375,-0.00244140625,-0.00244140625,-0.003662109375,0.00274658203125,-0.00396728515625,-0.0030517578125,-0.0079345703125,-0.00396728515625,-0.00396728515625,-0.00244140625,-0.01922607421875,0.4404095411300659,-0.40766021609306335,-0.5237939357757568,-0.7709054350852966,0.01689453050494194,0.014915771782398224,0.038162536919116974,0.012253723107278347,0.02543029747903347,0.05410003662109375,0.014818725176155567,0.014818725176155567,0.014818725176155567,0.014818725176155567,0.014818725176155567,0.014818725176155567,0.014818725176155567,0.014818725176155567,0.014818725176155567,0.014818725176155567,0.014818725176155567,0.014818725176155567,0.014818725176155567,0.014818725176155567,0.014818725176155567,0.014818725176155567,0.014818725176155567,0.014818725176155567,0.014818725176155567,0.014818725176155567,0.014818725176155567,0.014818725176155567,0.014818725176155567,0.014818725176155567,0.014818725176155567,0.014818725176155567,0.014818725176155567,0.014818725176155567,0.014818725176155567,0.014818725176155567,0.014818725176155567,0.014818725176155567,0.014818725176155567,0.014818725176155567,0.014818725176155567,0.014818725176155567
10,0.732,42.14320755004883,-99.65853881835938,-1505.957275390625,-48188.7265625,63409.26171875,8345.0654296875,-0.0,-0.0,-0.0,-0.0,-0.0,-0.0,-0.0,-0.0,-0.0,-0.0,-0.0,-0.0,-0.0,-0.0,-0.0,-0.0,-0.0,-0.0,-0.0,-0.0,-0.0,-0.0,-0.0,-0.0,-0.323486328125,-0.3228759765625,0.22857666015625,1.2744140625,2.18170166015625,1.0260009765625,0.78399658203125,1.55975341796875,-0.05767822265625,0.0421142578125,-0.08514404296875,0.0592041015625,-0.02044677734375,-0.00579833984375,-0.01800537109375,0.00244140625,-0.00823974609375,0.0006103515625,-0.0225830078125,0.0054931640625,-0.00701904296875,-0.00762939453125,-0.0103759765625,-0.01068115234375,-0.01373291015625,0.00457763671875,-0.01129150390625,0.01953125,0.00091552734375,-0.01708984375,-0.0067138671875,-0.00335693359375,0.00274658203125,-0.006103515625,-0.0018310546875,-0.0079345703125,-0.0054931640625,-0.00457763671875,-0.01190185546875,-0.006103515625,-0.11302673071622849,0.24312713742256165,-0.6183984279632568,-0.16665740311145782,0.01948852464556694,0.026359863579273224,0.040298767387866974,0.02369781583547592,0.00971374474465847,0.05486297607421875,0.03160339221358299,0.03160339221358299,0.03160339221358299,0.03160339221358299,0.03160339221358299,0.03160339221358299,0.03160339221358299,0.03160339221358299,0.03160339221358299,0.03160339221358299,0.03160339221358299,0.03160339221358299,0.03160339221358299,0.03160339221358299,0.03160339221358299,0.03160339221358299,0.03160339221358299,0.03160339221358299,0.03160339221358299,0.03160339221358299,0.03160339221358299,0.03160339221358299,0.03160339221358299,0.03160339221358299,0.03160339221358299,0.03160339221358299,0.03160339221358299,0.03160339221358299,0.03160339221358299,0.03160339221358299,0.03160339221358299,0.03160339221358299,0.03160339221358299,0.03160339221358299,0.03160339221358299,0.03160339221358299
11,0.733,48.42742156982422,-132.3215789794922,-1513.4207763671875,-49416.078125,63309.7578125,7621.34521484375,-0.0,-0.0,-0.0,-0.0,-0.0,-0.0,-0.0,-0.0,-0.0,-0.0,-0.0,-0.0,-0.0,-0.0,-0.0,-0.0,-0.0,-0.0,-0.0,-0.0,-0.0,-0.0,-0.0,-0.0,-0.42572021484375,-0.316162109375,0.43212890625,1.5679931640625,2.18841552734375,1.0443115234375,0.78094482421875,1.56524658203125,-0.05645751953125,0.0433349609375,-0.08209228515625,0.0714111328125,-0.0189208984375,-0.00457763671875,-0.00823974609375,0.001220703125,-0.01495361328125,0.00152587890625,-0.02471923828125,0.00762939453125,-0.00640869140625,-0.009765625,-0.0079345703125,-0.0054931640625,-0.0146484375,0.00823974609375,-0.015869140625,0.01922607421875,0.00244140625,-0.0030517578125,-0.00732421875,-0.001220703125,-0.00091552734375,-0.00335693359375,0.00213623046875,-0.008544921875,-0.001220703125,-0.0091552734375,-0.0115966796875,0.0054931640625,-1.167866826057434,-1.4750125408172607,-0.00026489258743822575,0.12722687423229218,0.01948852464556694,0.018425293266773224,0.035873718559741974,0.02583404630422592,0.02726135216653347,0.04647064208984375,0.024736938998103142,0.024736938998103142,0.024736938998103142,0.024736938998103142,0.024736938998103142,0.024736938998103142,0.024736938998103142,0.024736938998103142,0.024736938998103142,0.024736938998103142,0.024736938998103142,0.024736938998103142,0.024736938998103142,0.024736938998103142,0.024736938998103142,0.024736938998103142,0.024736938998103142,0.024736938998103142,0.024736938998103142,0.024736938998103142,0.024736938998103142,0.024736938998103142,0.024736938998103142,0.024736938998103142,0.024736938998103142,0.024736938998103142,0.024736938998103142,0.024736938998103142,0.024736938998103142,0.024736938998103142,0.024736938998103142,0.024736938998103142,0.024736938998103142,0.024736938998103142,0.024736938998103142,0.024736938998103142
12,0.734,54.87225341796875,-166.9095001220703,-1513.75244140625,-49648.2421875,61518.5,6857.6611328125,-0.0,-0.0,-0.0,-0.0,-0.0,-0.0,-0.0,-0.0,-0.0,-0.0,-0.0,-0.0,-0.0,-0.0,-0.0,-0.0,-0.0,-0.0,-0.0,-0.0,-0.0,-0.0,-0.0,-0.0,-0.52520751953125,-0.31463623046875,0.65948486328125,1.8670654296875,2.17620849609375,1.05926513671875,0.7940673828125,1.55059814453125,-0.0543212890625,0.0439453125,-0.0750732421875,0.07171630859375,-0.01678466796875,-0.001220703125,-0.01220703125,0.001220703125,-0.01617431640625,0.00518798828125,-0.01708984375,0.00274658203125,-0.00823974609375,-0.00640869140625,-0.003662109375,-0.006103515625,-0.009765625,0.0091552734375,-0.01617431640625,0.02044677734375,0.0,-0.00213623046875,0.0042724609375,-0.0048828125,0.0,-0.01556396484375,-0.0006103515625,-0.009765625,-0.01708984375,-0.00640869140625,-0.00732421875,-0.0006103515625,0.20420348644256592,-0.5690982341766357,0.15476439893245697,0.22824005782604218,0.23692627251148224,0.024223633110523224,0.041519470512866974,0.02461334317922592,0.02115783654153347,0.04601287841796875,0.025805054232478142,0.025805054232478142,0.025805054232478142,0.025805054232478142,0.025805054232478142,0.025805054232478142,0.025805054232478142,0.025805054232478142,0.025805054232478142,0.025805054232478142,0.025805054232478142,0.025805054232478142,0.025805054232478142,0.025805054232478142,0.025805054232478142,0.025805054232478142,0.025805054232478142,0.025805054232478142,0.025805054232478142,0.025805054232478142,0.025805054232478142,0.025805054232478142,0.025805054232478142,0.025805054232478142,0.025805054232478142,0.025805054232478142,0.025805054232478142,0.025805054232478142,0.025805054232478142,0.025805054232478142,0.025805054232478142,0.025805054232478142,0.025805054232478142,0.025805054232478142,0.025805054232478142,0.025805054232478142
13,0.735,60.67460632324219,-203.923583984375,-1496.254638671875,-50129.24609375,59637.6953125,6225.1318359375,-0.0,-0.0,-0.0,-0.0,-0.0,-0.0,-0.0,-0.0,-0.0,-0.0,-0.0,-0.0,-0.0,-0.0,-0.0,-0.0,-0.0,-0.0,-0.0,-0.0,-0.0,-0.0,-0.0,-0.0,-0.60760498046875,-0.3204345703125,0.9173583984375,2.17254638671875,2.14202880859375,1.065673828125,0.7843017578125,1.52374267578125,-0.05462646484375,0.037841796875,-0.06866455078125,0.0689697265625,-0.020751953125,0.0103759765625,-0.01007080078125,0.0018310546875,-0.01190185546875,0.00823974609375,-0.02227783203125,0.0079345703125,-0.00579833984375,-0.01007080078125,0.00335693359375,-0.00335693359375,-0.0115966796875,0.00946044921875,-0.0152587890625,0.01800537109375,0.0079345703125,-0.00152587890625,-0.0030517578125,-0.0140380859375,0.0006103515625,-0.008544921875,-0.00030517578125,-0.009765625,-0.00701904296875,0.0006103515625,-0.00946044921875,-0.00244140625,-0.058400269597768784,-0.26499053835868835,0.17811034619808197,0.21115021407604218,0.18443603813648224,0.050468750298023224,0.036331482231616974,0.02934356778860092,0.03733215481042862,0.12001800537109375,0.05052429065108299,0.05052429065108299,0.05052429065108299,0.05052429065108299,0.05052429065108299,0.05052429065108299,0.05052429065108299,0.05052429065108299,0.05052429065108299,0.05052429065108299,0.05052429065108299,0.05052429065108299,0.05052429065108299,0.05052429065108299,0.05052429065108299,0.05052429065108299,0.05052429065108299,0.05052429065108299,0.05052429065108299,0.05052429065108299,0.05052429065108299,0.05052429065108299,0.05052429065108299,0.05052429065108299,0.05052429065108299,0.05052429065108299,0.05052429065108299,0.05052429065108299,0.05052429065108299,0.05052429065108299,0.05052429065108299,0.05052429065108299,0.05052429065108299,0.05052429065108299,0.05052429065108299,0.05052429065108299
14,0.736,61.477699279785156,-239.69451904296875,-1463.249267578125,-50593.63671875,57945.96484375,5335.03662109375,-0.0,-0.0,-0.0,-0.0,-0.0,-0.0,-0.0,-0.0,-0.0,-0.0,-0.0,-0.0,-0.0,-0.0,-0.0,-0.0,-0.0,-0.0,-0.0,-0.0,-0.0,-0.0,-0.0,-0.0,-0.65521240234375,-0.2850341796875,1.1767578125,2.45758056640625,2.09869384765625,1.05255126953125,0.76263427734375,1.48040771484375,-0.04638671875,0.03814697265625,-0.06500244140625,0.0689697265625,-0.0152587890625,-0.0018310546875,-0.010986328125,0.00244140625,-0.01312255859375,0.00640869140625,-0.02044677734375,0.0067138671875,-0.003662109375,-0.00885009765625,-0.00244140625,-0.00732421875,-0.0146484375,0.00885009765625,-0.015869140625,0.018310546875,0.0091552734375,-0.00640869140625,-0.00518798828125,-0.01007080078125,-0.0018310546875,-0.00091552734375,-0.0030517578125,-0.0079345703125,-0.00518798828125,-0.00732421875,-0.0042724609375,0.001220703125,1.088297724723816,0.7597897052764893,0.15262816846370697,0.05078033357858658,0.16673584282398224,0.030784912407398224,0.045486755669116974,0.01789947599172592,0.02359924279153347,0.07225799560546875,0.03434997424483299,0.03434997424483299,0.03434997424483299,0.03434997424483299,0.03434997424483299,0.03434997424483299,0.03434997424483299,0.03434997424483299,0.03434997424483299,0.03434997424483299,0.03434997424483299,0.03434997424483299,0.03434997424483299,0.03434997424483299,0.03434997424483299,0.03434997424483299,0.03434997424483299,0.03434997424483299,0.03434997424483299,0.03434997424483299,0.03434997424483299,0.03434997424483299,0.03434997424483299,0.03434997424483299,0.03434997424483299,0.03434997424483299,0.03434997424483299,0.03434997424483299,0.03434997424483299,0.03434997424483299,0.03434997424483299,0.03434997424483299,0.03434997424483299,0.03434997424483299,0.03434997424483299,0.03434997424483299
15,0.737,60.89545822143555,-272.59814453125,-1416.6435546875,-50593.64453125,55418.296875,4777.69970703125,-0.0,-0.0,-0.0,-0.0,-0.0,-0.0,-0.0,-0.0,-0.0,-0.0,-0.0,-0.0,-0.0,-0.0,-0.0,-0.0,-0.0,-0.0,-0.0,-0.0,-0.0,-0.0,-0.0,-0.0,-0.67169189453125,-0.25970458984375,1.4276123046875,2.70751953125,2.03125,1.03424072265625,0.73394775390625,1.42333984375,-0.05096435546875,0.03570556640625,-0.069580078125,0.06683349609375,-0.01495361328125,-0.0103759765625,-0.01007080078125,-0.00152587890625,-0.01007080078125,0.00885009765625,-0.0213623046875,0.001220703125,-0.0030517578125,-0.006103515625,-0.00213623046875,-0.00244140625,-0.01495361328125,-0.0048828125,-0.01861572265625,0.0164794921875,-0.00091552734375,-0.0030517578125,-0.00946044921875,-0.003662109375,-0.00030517578125,-0.00946044921875,-0.00152587890625,-0.00823974609375,-0.00152587890625,-0.00244140625,-0.006103515625,-0.0018310546875,0.09296692162752151,0.7536861896514893,0.09922241419553757,0.08007720857858658,0.07609863579273224,0.06816894561052322,0.045944519340991974,-0.00010589599696686491,0.03382263332605362,0.06615447998046875,0.030230103060603142,0.030230103060603142,0.030230103060603142,0.030230103060603142,0.030230103060603142,0.030230103060603142,0.030230103060603142,0.030230103060603142,0.030230103060603142,0.030230103060603142,0.030230103060603142,0.030230103060603142,0.030230103060603142,0.030230103060603142,0.030230103060603142,0.030230103060603142,0.030230103060603142,0.030230103060603142,0.030230103060603142,0.030230103060603142,0.030230103060603142,0.030230103060603142,0.030230103060603142,0.030230103060603142,0.030230103060603142,0.030230103060603142,0.030230103060603142,0.030230103060603142,0.030230103060603142,0.030230103060603142,0.030230103060603142,0.030230103060603142,0.030230103060603142,0.030230103060603142,0.030230103060603142,0.030230103060603142
16,0.738,58.72710418701172,-300.6695251464844,-1359.671875,-49979.9765625,52223.9140625,4323.43798828125,-0.0,-0.0,-0.0,-0.0,-0.0,-0.0,-0.0,-0.0,-0.0,-0.0,-0.0,-0.0,-0.0,-0.0,-0.0,-0.0,-0.0,-0.0,-0.0,-0.0,-0.0,-0.0,-0.0,-0.0,-0.6640625,-0.234375,1.6552734375,2.9071044921875,1.9427490234375,1.01226806640625,0.7000732421875,1.3580322265625,-0.06103515625,0.03387451171875,-0.0506591796875,0.07476806640625,-0.015869140625,0.0006103515625,-0.009765625,0.0006103515625,-0.00823974609375,0.0067138671875,-0.02044677734375,0.006103515625,-0.01007080078125,-0.00579833984375,-0.00244140625,-0.0054931640625,-0.0146484375,0.01068115234375,-0.01922607421875,0.0164794921875,0.00701904296875,-0.00213623046875,-0.00244140625,-0.00762939453125,0.0048828125,-0.008544921875,-0.00335693359375,-0.0079345703125,-0.00701904296875,-0.0018310546875,-0.00091552734375,-0.00091552734375,-0.7564898729324341,0.14409759640693665,0.07511352747678757,0.03582672029733658,0.09868164360523224,0.06633789092302322,0.048385925590991974,0.05329986661672592,0.06388244777917862,0.06172943115234375,0.03984313830733299,0.03984313830733299,0.03984313830733299,0.03984313830733299,0.03984313830733299,0.03984313830733299,0.03984313830733299,0.03984313830733299,0.03984313830733299,0.03984313830733299,0.03984313830733299,0.03984313830733299,0.03984313830733299,0.03984313830733299,0.03984313830733299,0.03984313830733299,0.03984313830733299,0.03984313830733299,0.03984313830733299,0.03984313830733299,0.03984313830733299,0.03984313830733299,0.03984313830733299,0.03984313830733299,0.03984313830733299,0.03984313830733299,0.03984313830733299,0.03984313830733299,0.03984313830733299,0.03984313830733299,0.03984313830733299,0.03984313830733299,0.03984313830733299,0.03984313830733299,0.03984313830733299,0.03984313830733299
17,0.739,54.510860443115234,-322.9461364746094,-1282.96337890625,-48172.1328125,49367.8671875,3958.6484375,-0.0,-0.0,-0.0,-0.0,-0.0,-0.0,-0.0,-0.0,-0.0,-0.0,-0.0,-0.0,-0.0,-0.0,-0.0,-0.0,-0.0,-0.0,-0.0,-0.0,-0.0,-0.0,-0.0,-0.0,-0.6280517578125,-0.206298828125,1.85455322265625,3.046875,1.8389892578125,0.958251953125,0.65673828125,1.27685546875,-0.0469970703125,0.02777099609375,-0.04974365234375,0.0640869140625,-0.0152587890625,0.001220703125,-0.010986328125,-0.0018310546875,-0.01220703125,0.00946044921875,-0.02105712890625,0.0018310546875,-0.00091552734375,-0.006103515625,-0.00823974609375,-0.00274658203125,-0.0177001953125,0.00396728515625,-0.0189208984375,0.015869140625,0.0006103515625,-0.00396728515625,-0.0091552734375,0.001220703125,0.00152587890625,-0.00762939453125,0.0,-0.00885009765625,-0.00518798828125,-0.00244140625,-0.0067138671875,0.00030517578125,-0.2698870897293091,-1.3694217205047607,0.07557129114866257,0.02743438631296158,0.06434936821460724,-0.012702636420726776,0.053726501762866974,0.05162139981985092,0.02466735802590847,0.04753875732421875,0.03755431994795799,0.03755431994795799,0.03755431994795799,0.03755431994795799,0.03755431994795799,0.03755431994795799,0.03755431994795799,0.03755431994795799,0.03755431994795799,0.03755431994795799,0.03755431994795799,0.03755431994795799,0.03755431994795799,0.03755431994795799,0.03755431994795799,0.03755431994795799,0.03755431994795799,0.03755431994795799,0.03755431994795799,0.03755431994795799,0.03755431994795799,0.03755431994795799,0.03755431994795799,0.03755431994795799,0.03755431994795799,0.03755431994795799,0.03755431994795799,0.03755431994795799,0.03755431994795799,0.03755431994795799,0.03755431994795799,0.03755431994795799,0.03755431994795799,0.03755431994795799,0.03755431994795799,0.03755431994795799
18,0.74,49.57183074951172,-336.580810546875,-1195.7227783203125,-45617.96484375,45964.48828125,3657.611083984375,-0.0,-0.0,-0.0,-0.0,-0.0,-0.0,-0.0,-0.0,-0.0,-0.0,-0.0,-0.0,-0.0,-0.0,-0.0,-0.0,-0.0,-0.0,-0.0,-0.0,-0.0,-0.0,-0.0,-0.0,-0.57525634765625,-0.18402099609375,2.00286865234375,3.1060791015625,1.71142578125,0.90179443359375,0.6048583984375,1.19171142578125,-0.04486083984375,0.02838134765625,-0.04425048828125,0.06195068359375,-0.01220703125,-0.00274658203125,-0.009765625,-0.00457763671875,-0.0128173828125,0.00213623046875,-0.0225830078125,0.00518798828125,-0.0079345703125,-0.01007080078125,-0.00579833984375,-0.0079345703125,-0.018310546875,0.00213623046875,-0.0140380859375,0.01953125,-0.00213623046875,0.0018310546875,-0.00274658203125,0.00091552734375,0.0054931640625,-0.00640869140625,-0.00274658203125,-0.0079345703125,-0.00701904296875,-0.003662109375,-0.00213623046875,-0.003662109375,-0.7336016893386841,-0.6896426677703857,0.07465576380491257,0.05856231600046158,0.03566284105181694,0.016746826469898224,0.061508484184741974,0.03071685880422592,0.02619323693215847,0.25460052490234375,0.03846984729170799,0.03846984729170799,0.03846984729170799,0.03846984729170799,0.03846984729170799,0.03846984729170799,0.03846984729170799,0.03846984729170799,0.03846984729170799,0.03846984729170799,0.03846984729170799,0.03846984729170799,0.03846984729170799,0.03846984729170799,0.03846984729170799,0.03846984729170799,0.03846984729170799,0.03846984729170799,0.03846984729170799,0.03846984729170799,0.03846984729170799,0.03846984729170799,0.03846984729170799,0.03846984729170799,0.03846984729170799,0.03846984729170799,0.03846984729170799,0.03846984729170799,0.03846984729170799,0.03846984729170799,0.03846984729170799,0.03846984729170799,0.03846984729170799,0.03846984729170799,0.03846984729170799,0.03846984729170799
19,0.741,45.857521057128906,-345.18267822265625,-1098.86279296875,-43196.44140625,41605.79296875,3257.09228515625,-0.0,-0.0,-0.0,-0.0,-0.0,-0.0,-0.0,-0.0,-0.0,-0.0,-0.0,-0.0,-0.0,-0.0,-0.0,-0.0,-0.0,-0.0,-0.0,-0.0,-0.0,-0.0,-0.0,-0.0,-0.53253173828125,-0.1702880859375,2.117919921875,3.1219482421875,1.57012939453125,0.84259033203125,0.55267333984375,1.08795166015625,-0.040283203125,0.023193359375,-0.0372314453125,0.0543212890625,-0.0146484375,0.00030517578125,-0.00762939453125,-0.0042724609375,-0.01434326171875,-0.0238037109375,-0.02471923828125,0.00244140625,-0.01983642578125,-0.003662109375,-0.00640869140625,-0.0048828125,-0.0152587890625,0.00518798828125,-0.01617431640625,0.0189208984375,-0.00152587890625,0.001220703125,-0.0030517578125,-0.0054931640625,-0.0006103515625,-0.00518798828125,-0.0030517578125,-0.00701904296875,0.00030517578125,-0.0067138671875,-0.00579833984375,-0.001220703125,-0.029866332188248634,0.004937438759952784,0.04139159992337227,0.005919494666159153,0.05946655198931694,0.044975586235523224,0.06501800566911697,0.02995391935110092,0.03122863732278347,-0.08658599853515625,0.03236633166670799,0.03236633166670799,0.03236633166670799,0.03236633166670799,0.03236633166670799,0.03236633166670799,0.03236633166670799,0.03236633166670799,0.03236633166670799,0.03236633166670799,0.03236633166670799,0.03236633166670799,0.03236633166670799,0.03236633166670799,0.03236633166670799,0.03236633166670799,0.03236633166670799,0.03236633166670799,0.03236633166670799,0.03236633166670799,0.03236633166670799,0.03236633166670799,0.03236633166670799,0.03236633166670799,0.03236633166670799,0.03236633166670799,0.03236633166670799,0.03236633166670799,0.03236633166670799,0.03236633166670799,0.03236633166670799,0.03236633166670799,0.03236633166670799,0.03236633166670799,0.03236633166670799,0.03236633166670799
20,0.742,41.902278900146484,-348.5712890625,-990.4754638671875,-39000.26171875,36998.2890625,2968.878173828125,-0.0,-0.0,-0.0,-0.0,-0.0,-0.0,-0.0,-0.0,-0.0,-0.0,-0.0,-0.0,-0.0,-0.0,-0.0,-0.0,-0.0,-0.0,-0.0,-0.0,-0.0,-0.0,-0.0,-0.0,-0.48736572265625,-0.15533447265625,2.18719482421875,3.104248046875,1.4080810546875,0.7666015625,0.4998779296875,0.97991943359375,-0.03326416015625,0.00244140625,-0.0323486328125,0.05218505859375,-0.01312255859375,-0.00701904296875,-0.00518798828125,-0.00335693359375,-0.0128173828125,0.003662109375,-0.018310546875,0.0042724609375,-0.00213623046875,-0.02685546875,-0.00946044921875,-0.0030517578125,-0.01434326171875,0.00762939453125,-0.0164794921875,0.01617431640625,-0.001220703125,-0.0006103515625,-0.00396728515625,0.0,0.0006103515625,-0.00732421875,-0.02532958984375,-0.0140380859375,-0.00518798828125,-0.0030517578125,-0.003662109375,-0.00640869140625,-0.22426331043243408,0.22878387570381165,0.026895752176642418,0.008971252478659153,0.07091064751148224,0.051231689751148224,0.040603943169116974,0.02476593106985092,0.02253112755715847,0.04311370849609375,0.03297668322920799,0.03297668322920799,0.03297668322920799,0.03297668322920799,0.03297668322920799,0.03297668322920799,0.03297668322920799,0.03297668322920799,0.03297668322920799,0.03297668322920799,0.03297668322920799,0.03297668322920799,0.03297668322920799,0.03297668322920799,0.03297668322920799,0.03297668322920799,0.03297668322920799,0.03297668322920799,0.03297668322920799,0.03297668322920799,0.03297668322920799,0.03297668322920799,0.03297668322920799,0.03297668322920799,0.03297668322920799,0.03297668322920799,0.03297668322920799,0.03297668322920799,0.03297668322920799,0.03297668322920799,0.03297668322920799,0.03297668322920799,0.03297668322920799,0.03297668322920799,0.03297668322920799,0.03297668322920799
21,0.743,37.926963806152344,-341.8141174316406,-875.4541015625,-35401.19140625,31933.0390625,2620.564453125,-0.0,-0.0,-0.0,-0.0,-0.0,-0.0,-0.0,-0.0,-0.0,-0.0,-0.0,-0.0,-0.0,-0.0,-0.0,-0.0,-0.0,-0.0,-0.0,-0.0,-0.0,-0.0,-0.0,-0.0,-0.440673828125,-0.1416015625,2.18536376953125,3.00323486328125,1.2371826171875,0.6927490234375,0.43975830078125,0.86151123046875,-0.0311279296875,0.0140380859375,-0.029296875,0.04241943359375,-0.01068115234375,-0.0091552734375,-0.00823974609375,-0.00213623046875,-0.01251220703125,-0.0048828125,-0.01983642578125,0.00762939453125,-0.0018310546875,-0.00457763671875,-0.0042724609375,-0.00762939453125,-0.01495361328125,0.00640869140625,-0.01708984375,0.018310546875,-0.00335693359375,-0.0067138671875,-0.0030517578125,-0.00579833984375,-0.0006103515625,-0.00213623046875,-0.00335693359375,-0.00640869140625,0.0018310546875,-0.0018310546875,-0.0030517578125,0.0152587890625,0.3020123243331909,0.24526336789131165,0.023081054911017418,0.03964141756296158,0.05885620042681694,0.055961914360523224,0.044723816215991974,0.03758331388235092,0.02283630333840847,0.15267181396484375,0.03846984729170799,0.03846984729170799,0.03846984729170799,0.03846984729170799,0.03846984729170799,0.03846984729170799,0.03846984729170799,0.03846984729170799,0.03846984729170799,0.03846984729170799,0.03846984729170799,0.03846984729170799,0.03846984729170799,0.03846984729170799,0.03846984729170799,0.03846984729170799,0.03846984729170799,0.03846984729170799,0.03846984729170799,0.03846984729170799,0.03846984729170799,0.03846984729170799,0.03846984729170799,0.03846984729170799,0.03846984729170799,0.03846984729170799,0.03846984729170799,0.03846984729170799,0.03846984729170799,0.03846984729170799,0.03846984729170799,0.03846984729170799,0.03846984729170799,0.03846984729170799,0.03846984729170799,0.03846984729170799
22,0.744,33.59025573730469,-334.59576416015625,-755.705810546875,-30491.826171875,27017.0546875,1919.3817138671875,-0.0,-0.0,-0.0,-0.0,-0.0,-0.0,-0.0,-0.0,-0.0,-0.0,-0.0,-0.0,-0.0,-0.0,-0.0,-0.0,-0.0,-0.0,-0.0,-0.0,-0.0,-0.0,-0.0,-0.0,-0.41351318359375,-0.10284423828125,2.16522216796875,2.91351318359375,1.05499267578125,0.60943603515625,0.37811279296875,0.74798583984375,-0.025634765625,0.00701904296875,-0.02410888671875,0.02777099609375,-0.01068115234375,-0.0213623046875,-0.00640869140625,-0.0042724609375,-0.013427734375,0.00335693359375,-0.018310546875,0.00274658203125,-0.0042724609375,-0.00732421875,-0.00396728515625,-0.0079345703125,-0.01556396484375,0.02288818359375,-0.01708984375,0.01861572265625,-0.00518798828125,-0.0030517578125,-0.00152587890625,-0.00823974609375,0.00152587890625,-0.0048828125,-0.00457763671875,-0.00640869140625,-0.00396728515625,0.00030517578125,0.0006103515625,-0.00335693359375,0.3946331739425659,0.31530120968818665,0.023081054911017418,0.13058380782604218,0.05656738206744194,0.048790283501148224,0.042129822075366974,0.05787750333547592,0.01963195763528347,0.12322235107421875,0.03740173205733299,0.03740173205733299,0.03740173205733299,0.03740173205733299,0.03740173205733299,0.03740173205733299,0.03740173205733299,0.03740173205733299,0.03740173205733299,0.03740173205733299,0.03740173205733299,0.03740173205733299,0.03740173205733299,0.03740173205733299,0.03740173205733299,0.03740173205733299,0.03740173205733299,0.03740173205733299,0.03740173205733299,0.03740173205733299,0.03740173205733299,0.03740173205733299,0.03740173205733299,0.03740173205733299,0.03740173205733299,0.03740173205733299,0.03740173205733299,0.03740173205733299,0.03740173205733299,0.03740173205733299,0.03740173205733299,0.03740173205733299,0.03740173205733299,0.03740173205733299,0.03740173205733299,0.03740173205733299
23,0.745,31.000276565551758,-323.04638671875,-630.4013061523438,-28385.46875,22568.787109375,1692.564697265625,-0.0,-0.0,-0.0,-0.0,-0.0,-0.0,-0.0,-0.0,-0.0,-0.0,-0.0,-0.0,-0.0,-0.0,-0.0,-0.0,-0.0,-0.0,-0.0,-0.0,-0.0,-0.0,-0.0,-0.0,-0.38909912109375,-0.087890625,2.099609375,2.8033447265625,0.8990478515625,0.51544189453125,0.30975341796875,0.60516357421875,-0.020751953125,0.00640869140625,-0.00823974609375,0.03265380859375,-0.00946044921875,-0.0079345703125,0.0054931640625,-0.006103515625,-0.01190185546875,0.00518798828125,-0.01983642578125,0.00518798828125,-0.00244140625,-0.00518798828125,-0.00244140625,-0.0048828125,-0.0164794921875,0.0054931640625,-0.0225830078125,0.018310546875,-0.003662109375,-0.0067138671875,-0.0067138671875,-0.0030517578125,-0.0006103515625,-0.001220703125,-0.00335693359375,-0.00946044921875,0.0,-0.00579833984375,-0.00152587890625,0.0103759765625,0.2676800489425659,0.35604217648506165,0.03650878742337227,0.14263825118541718,0.004840088076889515,0.045433349907398224,0.028396911919116974,0.05101104825735092,0.02359924279153347,0.11406707763671875,0.026415405794978142,0.026415405794978142,0.026415405794978142,0.026415405794978142,0.026415405794978142,0.026415405794978142,0.026415405794978142,0.026415405794978142,0.026415405794978142,0.026415405794978142,0.026415405794978142,0.026415405794978142,0.026415405794978142,0.026415405794978142,0.026415405794978142,0.026415405794978142,0.026415405794978142,0.026415405794978142,0.026415405794978142,0.026415405794978142,0.026415405794978142,0.026415405794978142,0.026415405794978142,0.026415405794978142,0.026415405794978142,0.026415405794978142,0.026415405794978142,0.026415405794978142,0.026415405794978142,0.026415405794978142,0.026415405794978142,0.026415405794978142,0.026415405794978142,0.026415405794978142,0.026415405794978142,0.026415405794978142
24,0.746,27.506816864013672,-295.6968688964844,-512.8920288085938,-24554.173828125,17483.626953125,1174.629150390625,-0.0,-0.0,-0.0,-0.0,-0.0,-0.0,-0.0,-0.0,-0.0,-0.0,-0.0,-0.0,-0.0,-0.0,-0.0,-0.0,-0.0,-0.0,-0.0,-0.0,-0.0,-0.0,-0.0,-0.0,-0.35736083984375,-0.0665283203125,1.9329833984375,2.5537109375,0.7244873046875,0.43853759765625,0.2484130859375,0.48553466796875,-0.00732421875,0.00030517578125,-0.00244140625,0.010986328125,-0.0079345703125,-0.00701904296875,-0.0067138671875,-0.00579833984375,-0.0146484375,-0.00152587890625,-0.0201416015625,0.0042724609375,-0.00152587890625,-0.003662109375,-0.02105712890625,0.00030517578125,-0.0140380859375,0.01708984375,-0.018310546875,0.01861572265625,0.00091552734375,-0.00579833984375,-0.01007080078125,-0.00274658203125,-0.0042724609375,-0.006103515625,-0.00244140625,-0.0128173828125,-0.0067138671875,-0.00518798828125,-0.0018310546875,0.00244140625,0.20069396495819092,0.27410247921943665,0.007822265848517418,0.11852935701608658,0.02803344652056694,0.046654053032398224,0.011307068169116974,0.001877746544778347,0.04816589504480362,0.11742401123046875,0.022448120638728142,0.022448120638728142,0.022448120638728142,0.022448120638728142,0.022448120638728142,0.022448120638728142,0.022448120638728142,0.022448120638728142,0.022448120638728142,0.022448120638728142,0.022448120638728142,0.022448120638728142,0.022448120638728142,0.022448120638728142,0.022448120638728142,0.022448120638728142,0.022448120638728142,0.022448120638728142,0.022448120638728142,0.022448120638728142,0.022448120638728142,0.022448120638728142,0.022448120638728142,0.022448120638728142,0.022448120638728142,0.022448120638728142,0.022448120638728142,0.022448120638728142,0.022448120638728142,0.022448120638728142,0.022448120638728142,0.022448120638728142,0.022448120638728142,0.022448120638728142,0.022448120638728142,0.022448120638728142
25,0.747,24.89676284790039,-245.95040893554688,-383.6069641113281,-17737.484375,14010.595703125,884.218505859375,-0.0,-0.0,-0.0,-0.0,-0.0,-0.0,-0.0,-0.0,-0.0,-0.0,-0.0,-0.0,-0.0,-0.0,-0.0,-0.0,-0.0,-0.0,-0.0,-0.0,-0.0,-0.0,-0.0,-0.0,-0.31646728515625,-0.0677490234375,1.60797119140625,2.12158203125,0.54840087890625,0.31402587890625,0.18829345703125,0.3704833984375,-0.01129150390625,-0.00335693359375,-0.00885009765625,-0.00091552734375,-0.008544921875,-0.006103515625,-0.00213623046875,-0.00640869140625,-0.0103759765625,0.0054931640625,-0.01373291015625,0.0048828125,0.0006103515625,-0.00213623046875,-0.0030517578125,-0.00640869140625,-0.01434326171875,0.00274658203125,-0.0189208984375,0.0177001953125,-0.00274658203125,-0.00396728515625,-0.0048828125,-0.00335693359375,0.00213623046875,-0.013427734375,-0.00518798828125,-0.00732421875,-0.00518798828125,-0.0006103515625,-0.00396728515625,-0.00152587890625,0.21473205089569092,0.16820648312568665,0.008890381082892418,0.05276397615671158,0.10859985649585724,0.08342773467302322,0.005050964187830687,0.014847717247903347,0.03641662746667862,-0.06751251220703125,0.029009399935603142,0.029009399935603142,0.029009399935603142,0.029009399935603142,0.029009399935603142,0.029009399935603142,0.029009399935603142,0.029009399935603142,0.029009399935603142,0.029009399935603142,0.029009399935603142,0.029009399935603142,0.029009399935603142,0.029009399935603142,0.029009399935603142,0.029009399935603142,0.029009399935603142,0.029009399935603142,0.029009399935603142,0.029009399935603142,0.029009399935603142,0.029009399935603142,0.029009399935603142,0.029009399935603142,0.029009399935603142,0.029009399935603142,0.029009399935603142,0.029009399935603142,0.029009399935603142,0.029009399935603142,0.029009399935603142,0.029009399935603142,0.029009399935603142,0.029009399935603142,0.029009399935603142,0.029009399935603142
26,0.748,23.953126907348633,-169.31561279296875,-271.73681640625,-11584.2060546875,9124.4638671875,928.4093017578125,-0.0,-0.0,-0.0,-0.0,-0.0,-0.0,-0.0,-0.0,-0.0,-0.0,-0.0,-0.0,-0.0,-0.0,-0.0,-0.0,-0.0,-0.0,-0.0,-0.0,-0.0,-0.0,-0.0,-0.0,-0.2606201171875,-0.1092529296875,1.10321044921875,1.4599609375,0.37109375,0.2288818359375,0.14251708984375,0.26702880859375,-0.010986328125,-0.0091552734375,-0.0030517578125,-0.013427734375,-0.00701904296875,-0.00701904296875,-0.00213623046875,-0.00946044921875,-0.0146484375,-0.00030517578125,-0.01556396484375,-0.00030517578125,-0.00396728515625,-0.00335693359375,-0.003662109375,-0.00518798828125,-0.0152587890625,0.00732421875,-0.01739501953125,0.02227783203125,0.00244140625,0.0006103515625,-0.00885009765625,-0.02410888671875,-0.0030517578125,-0.00823974609375,0.00762939453125,-0.01068115234375,-0.00579833984375,-0.00244140625,0.0006103515625,-0.0042724609375,0.07465637475252151,0.08504608273506165,0.006448974832892418,-0.02230926603078842,0.08403320610523224,-0.029945068061351776,0.011154480278491974,0.06764312833547592,0.01520690880715847,0.36019134521484375,0.030077515169978142,0.030077515169978142,0.030077515169978142,0.030077515169978142,0.030077515169978142,0.030077515169978142,0.030077515169978142,0.030077515169978142,0.030077515169978142,0.030077515169978142,0.030077515169978142,0.030077515169978142,0.030077515169978142,0.030077515169978142,0.030077515169978142,0.030077515169978142,0.030077515169978142,0.030077515169978142,0.030077515169978142,0.030077515169978142,0.030077515169978142,0.030077515169978142,0.030077515169978142,0.030077515169978142,0.030077515169978142,0.030077515169978142,0.030077515169978142,0.030077515169978142,0.030077515169978142,0.030077515169978142,0.030077515169978142,0.030077515169978142,0.030077515169978142,0.030077515169978142,0.030077515169978142,0.030077515169978142
27,0.749,20.138429641723633,-114.17544555664062,-160.7788848876953,-7039.74267578125,4526.92529296875,857.364990234375,-0.0,-0.0,-0.0,-0.0,-0.0,-0.0,-0.0,-0.0,-0.0,-0.0,-0.0,-0.0,-0.0,-0.0,-0.0,-0.0,-0.0,-0.0,-0.0,-0.0,-0.0,-0.0,-0.0,-0.0,-0.19866943359375,-0.11322021484375,0.74310302734375,0.9808349609375,0.20599365234375,0.14801025390625,0.0897216796875,0.157470703125,-0.0042724609375,-0.00946044921875,-0.00518798828125,-0.0347900390625,-0.00579833984375,-0.01007080078125,-0.0177001953125,-0.0054931640625,-0.00885009765625,0.00457763671875,-0.01495361328125,0.00335693359375,-0.0006103515625,-0.0042724609375,0.001220703125,-0.001220703125,-0.01434326171875,0.008544921875,-0.01708984375,0.01922607421875,-0.00274658203125,-0.0067138671875,-0.0079345703125,-0.0042724609375,0.00091552734375,-0.006103515625,-0.00274658203125,-0.00640869140625,-0.0042724609375,-0.0048828125,-0.0048828125,0.0018310546875,0.07526672631502151,0.018212584778666496,0.018350830301642418,-0.0004891967982985079,0.03383178636431694,-0.030555419623851776,0.010544128715991974,0.013169250451028347,0.02558288536965847,0.05669403076171875,0.022905884310603142,0.022905884310603142,0.022905884310603142,0.022905884310603142,0.022905884310603142,0.022905884310603142,0.022905884310603142,0.022905884310603142,0.022905884310603142,0.022905884310603142,0.022905884310603142,0.022905884310603142,0.022905884310603142,0.022905884310603142,0.022905884310603142,0.022905884310603142,0.022905884310603142,0.022905884310603142,0.022905884310603142,0.022905884310603142,0.022905884310603142,0.022905884310603142,0.022905884310603142,0.022905884310603142,0.022905884310603142,0.022905884310603142,0.022905884310603142,0.022905884310603142,0.022905884310603142,0.022905884310603142,0.022905884310603142,0.022905884310603142,0.022905884310603142,0.022905884310603142,0.022905884310603142,0.022905884310603142
28,0.75,16.08280372619629,-80.26924896240234,-96.34365844726562,-3905.056640625,2287.86376953125,1016.2426147460938,-0.0,-0.0,-0.0,-0.0,-0.0,-0.0,-0.0,-0.0,-0.0,-0.0,-0.0,-0.0,-0.0,-0.0,-0.0,-0.0,-0.0,-0.0,-0.0,-0.0,-0.0,-0.0,-0.0,-0.0,-0.14251708984375,-0.10772705078125,0.51727294921875,0.69061279296875,0.11627197265625,0.09033203125,0.06317138671875,0.09429931640625,0.00213623046875,-0.02197265625,-0.00640869140625,-0.0244140625,-0.020751953125,-0.0103759765625,0.0018310546875,-0.02288818359375,-0.010986328125,-0.00244140625,-0.01220703125,-0.0018310546875,-0.00579833984375,-0.00396728515625,-0.00244140625,-0.00335693359375,-0.01617431640625,0.00244140625,-0.01800537109375,0.0177001953125,-0.0030517578125,-0.00244140625,-0.0067138671875,-0.00091552734375,0.0,-0.00335693359375,-0.001220703125,-0.0067138671875,-0.0048828125,0.00213623046875,-0.00213623046875,-0.00396728515625,0.06901062279939651,0.017449645325541496,0.09052490442991257,-0.08197113126516342,0.04191894456744194,-0.09967773407697678,0.040451355278491974,0.03880401700735092,0.02863464318215847,0.24575042724609375,0.03251891955733299,0.03251891955733299,0.03251891955733299,0.03251891955733299,0.03251891955733299,0.03251891955733299,0.03251891955733299,0.03251891955733299,0.03251891955733299,0.03251891955733299,0.03251891955733299,0.03251891955733299,0.03251891955733299,0.03251891955733299,0.03251891955733299,0.03251891955733299,0.03251891955733299,0.03251891955733299,0.03251891955733299,0.03251891955733299,0.03251891955733299,0.03251891955733299,0.03251891955733299,0.03251891955733299,0.03251891955733299,0.03251891955733299,0.03251891955733299,0.03251891955733299,0.03251891955733299,0.03251891955733299,0.03251891955733299,0.03251891955733299,0.03251891955733299,0.03251891955733299,0.03251891955733299,0.03251891955733299
29,0.751,11.344549179077148,-42.01199722290039,-47.58188247680664,-2146.978271484375,1093.697265625,1036.1566162109375,-0.0,-0.0,-0.0,-0.0,-0.0,-0.0,-0.0,-0.0,-0.0,-0.0,-0.0,-0.0,-0.0,-0.0,-0.0,-0.0,-0.0,-0.0,-0.0,-0.0,-0.0,-0.0,-0.0,-0.0,-0.0872802734375,-0.0909423828125,0.2569580078125,0.36865234375,0.052490234375,0.0482177734375,0.03387451171875,0.050048828125,0.00274658203125,-0.0164794921875,-0.00152587890625,-0.0244140625,-0.0067138671875,-0.02471923828125,-0.00091552734375,-0.00579833984375,-0.0103759765625,-0.00244140625,-0.01800537109375,0.00244140625,-0.00640869140625,-0.00732421875,-0.0079345703125,-0.0067138671875,-0.01312255859375,0.00701904296875,-0.0177001953125,0.01373291015625,-0.00335693359375,-0.00213623046875,-0.00213623046875,-0.00213623046875,0.00244140625,-0.006103515625,-0.00091552734375,-0.00701904296875,-0.00579833984375,-0.0067138671875,-0.0048828125,-0.00640869140625,0.8450726270675659,0.0034115600865334272,-0.0016381836030632257,0.07504180818796158,-0.01606445387005806,-0.040626220405101776,0.036636658012866974,0.05482574552297592,0.03443298488855362,-0.01670074462890625,0.04228454455733299,0.04228454455733299,0.04228454455733299,0.04228454455733299,0.04228454455733299,0.04228454455733299,0.04228454455733299,0.04228454455733299,0.04228454455733299,0.04228454455733299,0.04228454455733299,0.04228454455733299,0.04228454455733299,0.04228454455733299,0.04228454455733299,0.04228454455733299,0.04228454455733299,0.04228454455733299,0.04228454455733299,0.04228454455733299,0.04228454455733299,0.04228454455733299,0.04228454455733299,0.04228454455733299,0.04228454455733299,0.04228454455733299,0.04228454455733299,0.04228454455733299,0.04228454455733299,0.04228454455733299,0.04228454455733299,0.04228454455733299,0.04228454455733299,0.04228454455733299,0.04228454455733299,0.04228454455733299
30,0.752,-0.0,-0.0,-0.0,-0.0,-0.0,-0.0,-0.0,-0.0,-0.0,-0.0,-0.0,-0.0,-0.0,-0.0,-0.0,-0.0,-0.0,-0.0,-0.0,-0.0,-0.0,-0.0,-0.0,-0.0,-0.0,-0.0,-0.0,-0.0,-0.0,-0.0,-0.0177001953125,-0.07049560546875,0.0848388671875,0.15472412109375,0.0189208984375,0.01556396484375,0.0091552734375,0.01708984375,0.00335693359375,-0.0177001953125,-0.01708984375,-0.03875732421875,-0.00885009765625,-0.009765625,-0.0115966796875,-0.009765625,-0.006103515625,0.001220703125,-0.01617431640625,0.00762939453125,-0.00701904296875,-0.00457763671875,-0.00274658203125,-0.0103759765625,-0.0201416015625,0.00518798828125,-0.0177001953125,0.01922607421875,-0.00213623046875,-0.00213623046875,-0.00091552734375,-0.00213623046875,-0.0140380859375,-0.00244140625,-0.0042724609375,-0.006103515625,-0.00396728515625,-0.008544921875,-0.0048828125,-0.00091552734375,0.005381469614803791,-0.003912658896297216,-0.016439208760857582,0.10571197420358658,-0.0020263672340661287,-0.010871581733226776,-0.0022732543293386698,0.0006570434779860079,0.02695617638528347,-0.11786651611328125,0.03831725940108299,0.03831725940108299,0.03831725940108299,0.03831725940108299,0.03831725940108299,0.03831725940108299,0.03831725940108299,0.03831725940108299,0.03831725940108299,0.03831725940108299,0.03831725940108299,0.03831725940108299,0.03831725940108299,0.03831725940108299,0.03831725940108299,0.03831725940108299,0.03831725940108299,0.03831725940108299,0.03831725940108299,0.03831725940108299,0.03831725940108299,0.03831725940108299,0.03831725940108299,0.03831725940108299,0.03831725940108299,0.03831725940108299,0.03831725940108299,0.03831725940108299,0.03831725940108299,0.03831725940108299,0.03831725940108299,0.03831725940108299,0.03831725940108299,0.03831725940108299,0.03831725940108299,0.03831725940108299
31,0.753,-0.0,-0.0,-0.0,-0.0,-0.0,-0.0,-0.0,-0.0,-0.0,-0.0,-0.0,-0.0,-0.0,-0.0,-0.0,-0.0,-0.0,-0.0,-0.0,-0.0,-0.0,-0.0,-0.0,-0.0,-0.0,-0.0,-0.0,-0.0,-0.0,-0.0,0.01129150390625,-0.0244140625,-0.00274658203125,0.04791259765625,-0.00091552734375,-0.00335693359375,-0.00152587890625,-0.00030517578125,0.001220703125,-0.01556396484375,-0.02105712890625,-0.0396728515625,-0.00762939453125,-0.00701904296875,0.00030517578125,-0.00732421875,-0.0079345703125,0.00274658203125,-0.01373291015625,0.00457763671875,-0.0140380859375,-0.00213623046875,-0.001220703125,-0.02685546875,-0.01800537109375,0.00640869140625,-0.01922607421875,0.01739501953125,-0.001220703125,0.01373291015625,-0.00762939453125,-0.00335693359375,-0.00244140625,-0.00640869140625,-0.0048828125,-0.013427734375,-0.00091552734375,-0.00457763671875,-0.0006103515625,-0.0030517578125,-0.050465699285268784,-0.009863586165010929,-0.0005700683686882257,0.02163604646921158,0.0025512694846838713,0.030174560844898224,-0.005019836593419313,-0.002547302283346653,0.02451477013528347,-0.41266632080078125,0.026567993685603142,0.026567993685603142,0.026567993685603142,0.026567993685603142,0.026567993685603142,0.026567993685603142,0.026567993685603142,0.026567993685603142,0.026567993685603142,0.026567993685603142,0.026567993685603142,0.026567993685603142,0.026567993685603142,0.026567993685603142,0.026567993685603142,0.026567993685603142,0.026567993685603142,0.026567993685603142,0.026567993685603142,0.026567993685603142,0.026567993685603142,0.026567993685603142,0.026567993685603142,0.026567993685603142,0.026567993685603142,0.026567993685603142,0.026567993685603142,0.026567993685603142,0.026567993685603142,0.026567993685603142,0.026567993685603142,0.026567993685603142,0.026567993685603142,0.026567993685603142,0.026567993685603142,0.026567993685603142
32,0.754,-0.0,-0.0,-0.0,-0.0,-0.0,-0.0,-0.0,-0.0,-0.0,-0.0,-0.0,-0.0,-0.0,-0.0,-0.0,-0.0,-0.0,-0.0,-0.0,-0.0,-0.0,-0.0,-0.0,-0.0,-0.0,-0.0,-0.0,-0.0,-0.0,-0.0,0.01251220703125,-0.02288818359375,-0.0146484375,0.030517578125,-0.00946044921875,-0.0006103515625,-0.00335693359375,-0.00091552734375,0.001220703125,-0.015869140625,-0.01708984375,-0.0384521484375,-0.0067138671875,-0.01068115234375,-0.00213623046875,-0.00885009765625,-0.0103759765625,-0.0048828125,-0.01373291015625,0.00152587890625,0.018310546875,-0.00030517578125,-0.0018310546875,-0.0238037109375,-0.01495361328125,0.0079345703125,-0.00823974609375,0.0177001953125,-0.00335693359375,-0.0128173828125,-0.008544921875,-0.00518798828125,0.008544921875,-0.008544921875,-0.00701904296875,-0.01678466796875,-0.00457763671875,-0.00396728515625,0.001220703125,-0.00030517578125,-0.035054322332143784,0.0006649780552834272,0.05558227375149727,0.003783264197409153,0.14384765923023224,0.08159667998552322,0.027633972465991974,0.001419982872903347,0.02100524865090847,-0.20926666259765625,0.030687866732478142,0.030687866732478142,0.030687866732478142,0.030687866732478142,0.030687866732478142,0.030687866732478142,0.030687866732478142,0.030687866732478142,0.030687866732478142,0.030687866732478142,0.030687866732478142,0.030687866732478142,0.030687866732478142,0.030687866732478142,0.030687866732478142,0.030687866732478142,0.030687866732478142,0.030687866732478142,0.030687866732478142,0.030687866732478142,0.030687866732478142,0.030687866732478142,0.030687866732478142,0.030687866732478142,0.030687866732478142,0.030687866732478142,0.030687866732478142,0.030687866732478142,0.030687866732478142,0.030687866732478142,0.030687866732478142,0.030687866732478142,0.030687866732478142,0.030687866732478142,0.030687866732478142,0.030687866732478142
33,0.755,-0.0,-0.0,-0.0,-0.0,-0.0,-0.0,-0.0,-0.0,-0.0,-0.0,-0.0,-0.0,-0.0,-0.0,-0.0,-0.0,-0.0,-0.0,-0.0,-0.0,-0.0,-0.0,-0.0,-0.0,-0.0,-0.0,-0.0,-0.0,-0.0,-0.0,0.01434326171875,-0.0299072265625,-0.0189208984375,0.02838134765625,-0.01434326171875,-0.00396728515625,-0.0006103515625,-0.00091552734375,0.00213623046875,-0.01739501953125,-0.02166748046875,-0.03875732421875,-0.0042724609375,-0.0146484375,-0.0006103515625,-0.00762939453125,-0.0079345703125,-0.0030517578125,-0.013427734375,0.00396728515625,-0.00457763671875,-0.0018310546875,-0.0048828125,-0.01190185546875,-0.01556396484375,0.0030517578125,-0.0201416015625,0.01708984375,-0.0048828125,0.00030517578125,-0.006103515625,-0.0018310546875,0.0030517578125,-0.0030517578125,-0.00244140625,-0.015869140625,-0.00518798828125,-0.00640869140625,-0.0091552734375,-0.00396728515625,-0.042836304754018784,0.058038026094436646,0.08960937708616257,-0.02032562345266342,0.07716675102710724,-0.033302001655101776,-0.054458312690258026,0.008896789513528347,0.03428039699792862,0.24529266357421875,0.03160339221358299,0.03160339221358299,0.03160339221358299,0.03160339221358299,0.03160339221358299,0.03160339221358299,0.03160339221358299,0.03160339221358299,0.03160339221358299,0.03160339221358299,0.03160339221358299,0.03160339221358299,0.03160339221358299,0.03160339221358299,0.03160339221358299,0.03160339221358299,0.03160339221358299,0.03160339221358299,0.03160339221358299,0.03160339221358299,0.03160339221358299,0.03160339221358299,0.03160339221358299,0.03160339221358299,0.03160339221358299,0.03160339221358299,0.03160339221358299,0.03160339221358299,0.03160339221358299,0.03160339221358299,0.03160339221358299,0.03160339221358299,0.03160339221358299,0.03160339221358299,0.03160339221358299,0.03160339221358299
34,0.756,-0.0,-0.0,-0.0,-0.0,-0.0,-0.0,-0.0,-0.0,-0.0,-0.0,-0.0,-0.0,-0.0,-0.0,-0.0,-0.0,-0.0,-0.0,-0.0,-0.0,-0.0,-0.0,-0.0,-0.0,-0.0,-0.0,-0.0,-0.0,-0.0,-0.0,0.015869140625,-0.02410888671875,-0.01495361328125,0.03204345703125,-0.00946044921875,0.003662109375,-0.00213623046875,-0.0030517578125,0.00335693359375,-0.01983642578125,-0.0164794921875,-0.03875732421875,-0.0103759765625,-0.009765625,0.0018310546875,-0.00732421875,-0.001220703125,-0.00030517578125,-0.01373291015625,0.0030517578125,-0.003662109375,-0.01007080078125,-0.00701904296875,-0.0042724609375,-0.01617431640625,0.00640869140625,-0.0146484375,0.015869140625,0.0018310546875,-0.02105712890625,-0.0042724609375,0.0,0.0006103515625,-0.0018310546875,0.001220703125,-0.008544921875,-0.003662109375,-0.008544921875,-0.00457763671875,-0.0054931640625,0.057566527277231216,0.09832122921943665,0.04734252765774727,-0.09387298673391342,0.06557007133960724,0.017814941704273224,0.12437469512224197,0.004776916466653347,0.01734313927590847,0.12200164794921875,0.03633361682295799,0.03633361682295799,0.03633361682295799,0.03633361682295799,0.03633361682295799,0.03633361682295799,0.03633361682295799,0.03633361682295799,0.03633361682295799,0.03633361682295799,0.03633361682295799,0.03633361682295799,0.03633361682295799,0.03633361682295799,0.03633361682295799,0.03633361682295799,0.03633361682295799,0.03633361682295799,0.03633361682295799,0.03633361682295799,0.03633361682295799,0.03633361682295799,0.03633361682295799,0.03633361682295799,0.03633361682295799,0.03633361682295799,0.03633361682295799,0.03633361682295799,0.03633361682295799,0.03633361682295799,0.03633361682295799,0.03633361682295799,0.03633361682295799,0.03633361682295799,0.03633361682295799,0.03633361682295799
35,0.757,-0.0,-0.0,-0.0,-0.0,-0.0,-0.0,-0.0,-0.0,-0.0,-0.0,-0.0,-0.0,-0.0,-0.0,-0.0,-0.0,-0.0,-0.0,-0.0,-0.0,-0.0,-0.0,-0.0,-0.0,-0.0,-0.0,-0.0,-0.0,-0.0,-0.0,0.02593994140625,-0.02532958984375,-0.01953125,0.02899169921875,-0.00946044921875,-0.00885009765625,-0.0048828125,-0.00274658203125,0.003662109375,-0.0201416015625,-0.01708984375,-0.03997802734375,-0.00457763671875,-0.0250244140625,-0.00091552734375,-0.008544921875,-0.00946044921875,0.00152587890625,-0.01434326171875,0.00091552734375,-0.0067138671875,-0.00762939453125,-0.00274658203125,-0.0018310546875,-0.01373291015625,0.00457763671875,-0.0177001953125,0.01739501953125,-0.00701904296875,-0.0067138671875,-0.010986328125,-0.00885009765625,0.001220703125,-0.006103515625,0.00335693359375,-0.01220703125,-0.006103515625,-0.01617431640625,0.0006103515625,-0.0042724609375,0.056040648370981216,0.025079039856791496,0.0033972167875617743,0.05032256990671158,-0.004315185360610485,0.11837036162614822,0.16877776384353638,0.03971954435110092,0.03595886379480362,0.42916107177734375,0.03984313830733299,0.03984313830733299,0.03984313830733299,0.03984313830733299,0.03984313830733299,0.03984313830733299,0.03984313830733299,0.03984313830733299,0.03984313830733299,0.03984313830733299,0.03984313830733299,0.03984313830733299,0.03984313830733299,0.03984313830733299,0.03984313830733299,0.03984313830733299,0.03984313830733299,0.03984313830733299,0.03984313830733299,0.03984313830733299,0.03984313830733299,0.03984313830733299,0.03984313830733299,0.03984313830733299,0.03984313830733299,0.03984313830733299,0.03984313830733299,0.03984313830733299,0.03984313830733299,0.03984313830733299,0.03984313830733299,0.03984313830733299,0.03984313830733299,0.03984313830733299,0.03984313830733299,0.03984313830733299
36,0.758,-0.0,-0.0,-0.0,-0.0,-0.0,-0.0,-0.0,-0.0,-0.0,-0.0,-0.0,-0.0,-0.0,-0.0,-0.0,-0.0,-0.0,-0.0,-0.0,-0.0,-0.0,-0.0,-0.0,-0.0,-0.0,-0.0,-0.0,-0.0,-0.0,-0.0,0.0146484375,-0.02655029296875,-0.0140380859375,0.0323486328125,-0.008544921875,-0.01129150390625,-0.0030517578125,-0.0042724609375,0.008544921875,-0.01800537109375,-0.01556396484375,-0.03387451171875,-0.0079345703125,-0.01251220703125,0.00152587890625,-0.0067138671875,-0.00823974609375,-0.0018310546875,-0.003662109375,0.0006103515625,-0.00762939453125,-0.01312255859375,-0.01068115234375,-0.00457763671875,-0.00762939453125,0.003662109375,-0.01617431640625,0.0433349609375,0.0,0.0018310546875,-0.00946044921875,-0.00152587890625,0.0,-0.009765625,-0.00030517578125,-0.010986328125,-0.0054931640625,-0.00457763671875,-0.00274658203125,-0.0054931640625,0.019877320155501366,-0.13895294070243835,-0.015523681417107582,0.03643707185983658,-0.05543212965130806,0.08007080107927322,-0.10954254120588303,0.01667877286672592,0.03367004543542862,0.16152191162109375,0.023363647982478142,0.023363647982478142,0.023363647982478142,0.023363647982478142,0.023363647982478142,0.023363647982478142,0.023363647982478142,0.023363647982478142,0.023363647982478142,0.023363647982478142,0.023363647982478142,0.023363647982478142,0.023363647982478142,0.023363647982478142,0.023363647982478142,0.023363647982478142,0.023363647982478142,0.023363647982478142,0.023363647982478142,0.023363647982478142,0.023363647982478142,0.023363647982478142,0.023363647982478142,0.023363647982478142,0.023363647982478142,0.023363647982478142,0.023363647982478142,0.023363647982478142,0.023363647982478142,0.023363647982478142,0.023363647982478142,0.023363647982478142,0.023363647982478142,0.023363647982478142,0.023363647982478142,0.023363647982478142
37,0.759,-0.0,-0.0,-0.0,-0.0,-0.0,-0.0,-0.0,-0.0,-0.0,-0.0,-0.0,-0.0,-0.0,-0.0,-0.0,-0.0,-0.0,-0.0,-0.0,-0.0,-0.0,-0.0,-0.0,-0.0,-0.0,-0.0,-0.0,-0.0,-0.0,-0.0,0.02960205078125,-0.0244140625,-0.0177001953125,0.0445556640625,-0.00946044921875,-0.00701904296875,-0.003662109375,-0.00152587890625,0.0018310546875,-0.03265380859375,-0.01129150390625,-0.0421142578125,-0.0006103515625,-0.00946044921875,0.0018310546875,0.00274658203125,-0.0079345703125,0.00152587890625,-0.0115966796875,0.0006103515625,-0.00091552734375,-0.00457763671875,-0.0054931640625,-0.00244140625,-0.0152587890625,0.0042724609375,-0.01983642578125,0.0177001953125,-0.0030517578125,-0.0048828125,-0.01129150390625,-0.0042724609375,-0.00213623046875,-0.003662109375,-0.00091552734375,-0.01007080078125,-0.00244140625,-0.00457763671875,0.00152587890625,0.003662109375,0.034220580011606216,-0.09332916140556335,0.05359863117337227,0.07733062654733658,0.05717773362994194,-0.09082763642072678,0.16084319353103638,0.005845031701028347,0.02649841271340847,0.15236663818359375,0.03450256213545799,0.03450256213545799,0.03450256213545799,0.03450256213545799,0.03450256213545799,0.03450256213545799,0.03450256213545799,0.03450256213545799,0.03450256213545799,0.03450256213545799,0.03450256213545799,0.03450256213545799,0.03450256213545799,0.03450256213545799,0.03450256213545799,0.03450256213545799,0.03450256213545799,0.03450256213545799,0.03450256213545799,0.03450256213545799,0.03450256213545799,0.03450256213545799,0.03450256213545799,0.03450256213545799,0.03450256213545799,0.03450256213545799,0.03450256213545799,0.03450256213545799,0.03450256213545799,0.03450256213545799,0.03450256213545799,0.03450256213545799,0.03450256213545799,0.03450256213545799,0.03450256213545799,0.03450256213545799
38,0.76,-0.0,-0.0,-0.0,-0.0,-0.0,-0.0,-0.0,-0.0,-0.0,-0.0,-0.0,-0.0,-0.0,-0.0,-0.0,-0.0,-0.0,-0.0,-0.0,-0.0,-0.0,-0.0,-0.0,-0.0,-0.0,-0.0,-0.0,-0.0,-0.0,-0.0,0.015869140625,-0.02288818359375,-0.01556396484375,0.0250244140625,-0.0079345703125,0.001220703125,-0.0030517578125,-0.0091552734375,-0.00213623046875,-0.01861572265625,-0.0146484375,-0.037841796875,-0.00701904296875,-0.010986328125,0.0103759765625,-0.00457763671875,-0.00732421875,0.00030517578125,-0.01373291015625,0.0030517578125,-0.010986328125,-0.003662109375,-0.00762939453125,-0.010986328125,-0.01373291015625,0.001220703125,-0.018310546875,0.02044677734375,0.00091552734375,0.001220703125,-0.02044677734375,-0.00335693359375,0.0006103515625,-0.0042724609375,-0.0042724609375,-0.0067138671875,-0.010986328125,-0.00579833984375,-0.0030517578125,0.0,0.07068908959627151,-0.031531065702438354,0.03711913898587227,0.01568511873483658,0.17970581352710724,0.014610596001148224,0.14283782243728638,0.03254791349172592,0.03061828576028347,0.13329315185546875,0.027025757357478142,0.027025757357478142,0.027025757357478142,0.027025757357478142,0.027025757357478142,0.027025757357478142,0.027025757357478142,0.027025757357478142,0.027025757357478142,0.027025757357478142,0.027025757357478142,0.027025757357478142,0.027025757357478142,0.027025757357478142,0.027025757357478142,0.027025757357478142,0.027025757357478142,0.027025757357478142,0.027025757357478142,0.027025757357478142,0.027025757357478142,0.027025757357478142,0.027025757357478142,0.027025757357478142,0.027025757357478142,0.027025757357478142,0.027025757357478142,0.027025757357478142,0.027025757357478142,0.027025757357478142,0.027025757357478142,0.027025757357478142,0.027025757357478142,0.027025757357478142,0.027025757357478142,0.027025757357478142
39,0.761,-0.0,-0.0,-0.0,-0.0,-0.0,-0.0,-0.0,-0.0,-0.0,-0.0,-0.0,-0.0,-0.0,-0.0,-0.0,-0.0,-0.0,-0.0,-0.0,-0.0,-0.0,-0.0,-0.0,-0.0,-0.0,-0.0,-0.0,-0.0,-0.0,-0.0,0.01434326171875,-0.02655029296875,-0.01312255859375,0.02655029296875,-0.015869140625,-0.0048828125,-0.00091552734375,0.0091552734375,0.0,-0.01617431640625,-0.0244140625,-0.03875732421875,-0.0079345703125,-0.008544921875,-0.001220703125,-0.0067138671875,-0.00701904296875,-0.0030517578125,-0.0115966796875,0.00091552734375,-0.00701904296875,-0.006103515625,-0.0042724609375,-0.01068115234375,-0.01434326171875,0.00579833984375,-0.01708984375,0.0177001953125,0.0030517578125,-0.00396728515625,-0.00244140625,-0.01068115234375,-0.00244140625,-0.00213623046875,-0.00091552734375,-0.01007080078125,-0.00732421875,-0.01190185546875,-0.00579833984375,-0.001220703125,0.052988890558481216,0.0020382690709084272,0.025369873270392418,0.18856720626354218,0.14613647758960724,0.045280762016773224,0.024124450981616974,0.02476593106985092,0.03458557277917862,-0.22605133056640625,0.016344605013728142,0.016344605013728142,0.016344605013728142,0.016344605013728142,0.016344605013728142,0.016344605013728142,0.016344605013728142,0.016344605013728142,0.016344605013728142,0.016344605013728142,0.016344605013728142,0.016344605013728142,0.016344605013728142,0.016344605013728142,0.016344605013728142,0.016344605013728142,0.016344605013728142,0.016344605013728142,0.016344605013728142,0.016344605013728142,0.016344605013728142,0.016344605013728142,0.016344605013728142,0.016344605013728142,0.016344605013728142,0.016344605013728142,0.016344605013728142,0.016344605013728142,0.016344605013728142,0.016344605013728142,0.016344605013728142,0.016344605013728142,0.016344605013728142,0.016344605013728142,0.016344605013728142,0.016344605013728142
40,0.762,-0.0,-0.0,-0.0,-0.0,-0.0,-0.0,-0.0,-0.0,-0.0,-0.0,-0.0,-0.0,-0.0,-0.0,-0.0,-0.0,-0.0,-0.0,-0.0,-0.0,-0.0,-0.0,-0.0,-0.0,-0.0,-0.0,-0.0,-0.0,-0.0,-0.0,0.01129150390625,-0.023193359375,-0.0054931640625,0.02716064453125,-0.0091552734375,-0.003662109375,-0.00457763671875,-0.0030517578125,0.0006103515625,-0.013427734375,-0.01953125,-0.03631591796875,-0.0042724609375,-0.0115966796875,-0.001220703125,-0.0006103515625,-0.0079345703125,0.0006103515625,-0.01800537109375,-0.00091552734375,-0.00396728515625,-0.00518798828125,-0.00335693359375,-0.023193359375,-0.02044677734375,0.0079345703125,-0.01434326171875,0.0225830078125,0.00152587890625,-0.0054931640625,-0.008544921875,-0.0006103515625,0.0,-0.0054931640625,-0.00274658203125,-0.0128173828125,-0.00091552734375,-0.0048828125,-0.0054931640625,0.0146484375,0.061228636652231216,0.08916595578193665,0.008127441629767418,0.07610992342233658,0.08006592094898224,0.041771240532398224,0.10545379668474197,0.04444976896047592,0.02665100060403347,-0.47126007080078125,0.0071893311105668545,0.0071893311105668545,0.0071893311105668545,0.0071893311105668545,0.0071893311105668545,0.0071893311105668545,0.0071893311105668545,0.0071893311105668545,0.0071893311105668545,0.0071893311105668545,0.0071893311105668545,0.0071893311105668545,0.0071893311105668545,0.0071893311105668545,0.0071893311105668545,0.0071893311105668545,0.0071893311105668545,0.0071893311105668545,0.0071893311105668545,0.0071893311105668545,0.0071893311105668545,0.0071893311105668545,0.0071893311105668545,0.0071893311105668545,0.0071893311105668545,0.0071893311105668545,0.0071893311105668545,0.0071893311105668545,0.0071893311105668545,0.0071893311105668545,0.0071893311105668545,0.0071893311105668545,0.0071893311105668545,0.0071893311105668545,0.0071893311105668545,0.0071893311105668545
41,0.763,-0.0,-0.0,-0.0,-0.0,-0.0,-0.0,-0.0,-0.0,-0.0,-0.0,-0.0,-0.0,-0.0,-0.0,-0.0,-0.0,-0.0,-0.0,-0.0,-0.0,-0.0,-0.0,-0.0,-0.0,-0.0,-0.0,-0.0,-0.0,-0.0,-0.0,0.02777099609375,-0.02197265625,-0.01312255859375,0.0323486328125,-0.008544921875,-0.00579833984375,-0.0103759765625,-0.00030517578125,0.0006103515625,-0.02471923828125,-0.01678466796875,-0.0372314453125,-0.00640869140625,-0.01617431640625,0.0018310546875,-0.00640869140625,-0.01220703125,-0.00030517578125,-0.0140380859375,-0.00335693359375,-0.0103759765625,-0.00335693359375,-0.0018310546875,-0.00762939453125,-0.0152587890625,0.01434326171875,-0.01678466796875,0.0201416015625,-0.00396728515625,-0.00091552734375,-0.0067138671875,-0.00213623046875,0.00244140625,-0.00701904296875,-0.001220703125,-0.010986328125,-0.00885009765625,-0.0048828125,-0.00030517578125,-0.00213623046875,0.041544798761606216,0.11495330929756165,0.006448974832892418,0.12966828048229218,0.09807129204273224,0.029411621391773224,0.07569915801286697,0.05513092130422592,0.03550110012292862,0.33852386474609375,0.016497192904353142,0.016497192904353142,0.016497192904353142,0.016497192904353142,0.016497192904353142,0.016497192904353142,0.016497192904353142,0.016497192904353142,0.016497192904353142,0.016497192904353142,0.016497192904353142,0.016497192904353142,0.016497192904353142,0.016497192904353142,0.016497192904353142,0.016497192904353142,0.016497192904353142,0.016497192904353142,0.016497192904353142,0.016497192904353142,0.016497192904353142,0.016497192904353142,0.016497192904353142,0.016497192904353142,0.016497192904353142,0.016497192904353142,0.016497192904353142,0.016497192904353142,0.016497192904353142,0.016497192904353142,0.016497192904353142,0.016497192904353142,0.016497192904353142,0.016497192904353142,0.016497192904353142,0.016497192904353142
42,0.764,-0.0,-0.0,-0.0,-0.0,-0.0,-0.0,-0.0,-0.0,-0.0,-0.0,-0.0,-0.0,-0.0,-0.0,-0.0,-0.0,-0.0,-0.0,-0.0,-0.0,-0.0,-0.0,-0.0,-0.0,-0.0,-0.0,-0.0,-0.0,-0.0,-0.0,0.0128173828125,-0.020751953125,-0.013427734375,0.02593994140625,-0.0091552734375,-0.006103515625,-0.00457763671875,-0.0067138671875,0.0,-0.01800537109375,-0.01617431640625,-0.03662109375,-0.0140380859375,-0.010986328125,0.00030517578125,0.00152587890625,-0.00457763671875,-0.00030517578125,-0.00946044921875,0.001220703125,-0.0042724609375,-0.00579833984375,-0.00823974609375,-0.00732421875,-0.0152587890625,0.00030517578125,-0.01373291015625,0.01922607421875,-0.0018310546875,0.0006103515625,-0.0067138671875,-0.0054931640625,0.00457763671875,-0.00274658203125,0.00152587890625,-0.0067138671875,-0.00244140625,-0.00335693359375,-0.001220703125,-0.00823974609375,0.056040648370981216,0.13967254757881165,0.024301758036017418,0.11486724764108658,0.09227295219898224,0.12187988311052322,-0.15867584943771362,0.04521270841360092,-0.00966491736471653,0.5994491577148438,0.03480773791670799,0.03480773791670799,0.03480773791670799,0.03480773791670799,0.03480773791670799,0.03480773791670799,0.03480773791670799,0.03480773791670799,0.03480773791670799,0.03480773791670799,0.03480773791670799,0.03480773791670799,0.03480773791670799,0.03480773791670799,0.03480773791670799,0.03480773791670799,0.03480773791670799,0.03480773791670799,0.03480773791670799,0.03480773791670799,0.03480773791670799,0.03480773791670799,0.03480773791670799,0.03480773791670799,0.03480773791670799,0.03480773791670799,0.03480773791670799,0.03480773791670799,0.03480773791670799,0.03480773791670799,0.03480773791670799,0.03480773791670799,0.03480773791670799,0.03480773791670799,0.03480773791670799,0.03480773791670799
43,0.765,-0.0,-0.0,-0.0,-0.0,-0.0,-0.0,-0.0,-0.0,-0.0,-0.0,-0.0,-0.0,-0.0,-0.0,-0.0,-0.0,-0.0,-0.0,-0.0,-0.0,-0.0,-0.0,-0.0,-0.0,-0.0,-0.0,-0.0,-0.0,-0.0,-0.0,0.01739501953125,-0.0225830078125,-0.0152587890625,0.02197265625,-0.010986328125,-0.00457763671875,-0.00457763671875,-0.00518798828125,0.0018310546875,-0.00823974609375,-0.0152587890625,-0.03692626953125,-0.0091552734375,-0.009765625,0.001220703125,-0.02288818359375,-0.0067138671875,0.00091552734375,-0.0146484375,-0.00213623046875,-0.0042724609375,-0.00579833984375,-0.010986328125,-0.003662109375,-0.015869140625,0.01739501953125,-0.01556396484375,0.02197265625,0.0006103515625,0.00091552734375,-0.00946044921875,-0.00518798828125,-0.0006103515625,-0.01068115234375,-0.0042724609375,-0.01556396484375,-0.0054931640625,-0.0048828125,-0.00518798828125,-0.0054931640625,0.051920775324106216,0.09130218625068665,0.06321167200803757,-0.302002876996994,-0.011334228329360485,0.14400511980056763,-0.15592926740646362,-0.014449157752096653,0.02436218224465847,-0.13251495361328125,0.03740173205733299,0.03740173205733299,0.03740173205733299,0.03740173205733299,0.03740173205733299,0.03740173205733299,0.03740173205733299,0.03740173205733299,0.03740173205733299,0.03740173205733299,0.03740173205733299,0.03740173205733299,0.03740173205733299,0.03740173205733299,0.03740173205733299,0.03740173205733299,0.03740173205733299,0.03740173205733299,0.03740173205733299,0.03740173205733299,0.03740173205733299,0.03740173205733299,0.03740173205733299,0.03740173205733299,0.03740173205733299,0.03740173205733299,0.03740173205733299,0.03740173205733299,0.03740173205733299,0.03740173205733299,0.03740173205733299,0.03740173205733299,0.03740173205733299,0.03740173205733299,0.03740173205733299,0.03740173205733299
44,0.766,-0.0,-0.0,-0.0,-0.0,-0.0,-0.0,-0.0,-0.0,-0.0,-0.0,-0.0,-0.0,-0.0,-0.0,-0.0,-0.0,-0.0,-0.0,-0.0,-0.0,-0.0,-0.0,-0.0,-0.0,-0.0,-0.0,-0.0,-0.0,-0.0,-0.0,0.010986328125,-0.02410888671875,-0.0140380859375,0.0286865234375,-0.0091552734375,-0.00701904296875,0.0,-0.0054931640625,0.0018310546875,-0.01068115234375,-0.01373291015625,-0.03692626953125,-0.01678466796875,-0.00823974609375,-0.00213623046875,-0.00762939453125,-0.00701904296875,0.00701904296875,-0.01373291015625,0.0048828125,-0.0042724609375,-0.00152587890625,-0.006103515625,-0.006103515625,-0.0164794921875,0.00274658203125,-0.02044677734375,0.0225830078125,-0.0042724609375,-0.001220703125,-0.00946044921875,-0.00946044921875,0.00244140625,-0.0054931640625,-0.00213623046875,-0.0103759765625,-0.0042724609375,-0.00396728515625,0.00091552734375,-0.00335693359375,0.034220580011606216,-0.010321349836885929,0.10837768763303757,-0.384247750043869,-0.011181640438735485,0.13027220964431763,-0.06880157440900803,0.007370910607278347,-0.01134338416159153,-0.17371368408203125,0.03496032580733299,0.03496032580733299,0.03496032580733299,0.03496032580733299,0.03496032580733299,0.03496032580733299,0.03496032580733299,0.03496032580733299,0.03496032580733299,0.03496032580733299,0.03496032580733299,0.03496032580733299,0.03496032580733299,0.03496032580733299,0.03496032580733299,0.03496032580733299,0.03496032580733299,0.03496032580733299,0.03496032580733299,0.03496032580733299,0.03496032580733299,0.03496032580733299,0.03496032580733299,0.03496032580733299,0.03496032580733299,0.03496032580733299,0.03496032580733299,0.03496032580733299,0.03496032580733299,0.03496032580733299,0.03496032580733299,0.03496032580733299,0.03496032580733299,0.03496032580733299,0.03496032580733299,0.03496032580733299
45,0.767,-0.0,-0.0,-0.0,-0.0,-0.0,-0.0,-0.0,-0.0,-0.0,-0.0,-0.0,-0.0,-0.0,-0.0,-0.0,-0.0,-0.0,-0.0,-0.0,-0.0,-0.0,-0.0,-0.0,-0.0,-0.0,-0.0,-0.0,-0.0,-0.0,-0.0,0.0140380859375,-0.023193359375,-0.01617431640625,0.0262451171875,-0.01129150390625,-0.00518798828125,-0.0030517578125,-0.0018310546875,0.001220703125,-0.01556396484375,-0.0164794921875,-0.03143310546875,-0.00732421875,-0.01068115234375,-0.0048828125,-0.0067138671875,-0.0067138671875,0.00091552734375,-0.0115966796875,-0.00213623046875,-0.00335693359375,-0.0030517578125,-0.001220703125,-0.00213623046875,-0.01434326171875,-0.00762939453125,-0.01617431640625,0.015869140625,-0.0115966796875,-0.0030517578125,-0.008544921875,-0.0067138671875,0.00213623046875,-0.00762939453125,-0.00640869140625,-0.00946044921875,-0.0030517578125,0.00030517578125,-0.00579833984375,-0.0048828125,0.013773803599178791,-0.038092344999313354,0.32505249977111816,-0.13430877029895782,0.0036193847190588713,0.009727783501148224,-0.061019591987133026,-0.03947357088327408,-0.08885803073644638,-0.13907623291015625,0.026262817904353142,0.026262817904353142,0.026262817904353142,0.026262817904353142,0.026262817904353142,0.026262817904353142,0.026262817904353142,0.026262817904353142,0.026262817904353142,0.026262817904353142,0.026262817904353142,0.026262817904353142,0.026262817904353142,0.026262817904353142,0.026262817904353142,0.026262817904353142,0.026262817904353142,0.026262817904353142,0.026262817904353142,0.026262817904353142,0.026262817904353142,0.026262817904353142,0.026262817904353142,0.026262817904353142,0.026262817904353142,0.026262817904353142,0.026262817904353142,0.026262817904353142,0.026262817904353142,0.026262817904353142,0.026262817904353142,0.026262817904353142,0.026262817904353142,0.026262817904353142,0.026262817904353142,0.026262817904353142
46,0.768,-0.0,-0.0,-0.0,-0.0,-0.0,-0.0,-0.0,-0.0,-0.0,-0.0,-0.0,-0.0,-0.0,-0.0,-0.0,-0.0,-0.0,-0.0,-0.0,-0.0,-0.0,-0.0,-0.0,-0.0,-0.0,-0.0,-0.0,-0.0,-0.0,-0.0,0.0152587890625,-0.03173828125,-0.0177001953125,0.02593994140625,-0.01953125,-0.00701904296875,-0.0018310546875,-0.0018310546875,0.0006103515625,-0.0177001953125,-0.0146484375,-0.03631591796875,-0.0091552734375,-0.0128173828125,0.00274658203125,-0.00732421875,-0.0091552734375,0.008544921875,-0.018310546875,-0.00335693359375,-0.00885009765625,-0.01068115234375,-0.003662109375,-0.00946044921875,-0.01922607421875,0.00701904296875,-0.0054931640625,0.018310546875,0.001220703125,-0.02166748046875,-0.00213623046875,0.001220703125,0.02532958984375,-0.0018310546875,-0.00274658203125,-0.0103759765625,-0.003662109375,-0.0079345703125,-0.00823974609375,0.00030517578125,0.027811890468001366,0.060632020235061646,0.47580933570861816,0.18398956954479218,-0.0018737793434411287,-0.15369385480880737,0.11888153105974197,-0.001631774939596653,-0.13051453232765198,-0.10382843017578125,0.022600708529353142,0.022600708529353142,0.022600708529353142,0.022600708529353142,0.022600708529353142,0.022600708529353142,0.022600708529353142,0.022600708529353142,0.022600708529353142,0.022600708529353142,0.022600708529353142,0.022600708529353142,0.022600708529353142,0.022600708529353142,0.022600708529353142,0.022600708529353142,0.022600708529353142,0.022600708529353142,0.022600708529353142,0.022600708529353142,0.022600708529353142,0.022600708529353142,0.022600708529353142,0.022600708529353142,0.022600708529353142,0.022600708529353142,0.022600708529353142,0.022600708529353142,0.022600708529353142,0.022600708529353142,0.022600708529353142,0.022600708529353142,0.022600708529353142,0.022600708529353142,0.022600708529353142,0.022600708529353142
47,0.769,-0.0,-0.0,-0.0,-0.0,-0.0,-0.0,-0.0,-0.0,-0.0,-0.0,-0.0,-0.0,-0.0,-0.0,-0.0,-0.0,-0.0,-0.0,-0.0,-0.0,-0.0,-0.0,-0.0,-0.0,-0.0,-0.0,-0.0,-0.0,-0.0,-0.0,0.01190185546875,-0.01953125,-0.01678466796875,0.0286865234375,-0.013427734375,-0.0048828125,-0.0030517578125,-0.0054931640625,0.00244140625,-0.01739501953125,-0.01129150390625,-0.03875732421875,-0.00213623046875,-0.01190185546875,-0.00244140625,-0.0067138671875,-0.0091552734375,-0.00030517578125,-0.015869140625,-0.0006103515625,-0.0079345703125,-0.006103515625,-0.003662109375,-0.008544921875,-0.0177001953125,0.00823974609375,-0.0189208984375,0.0177001953125,-0.001220703125,-0.0048828125,-0.00518798828125,-0.0018310546875,-0.0006103515625,-0.00823974609375,-0.00213623046875,-0.0152587890625,-0.00640869140625,-0.0091552734375,-0.00579833984375,-0.0030517578125,0.038798216730356216,0.041100770235061646,0.14560912549495697,0.14553742110729218,-0.04978637769818306,-0.13507813215255737,0.19136077165603638,0.07740875333547592,-0.10960998386144638,-0.08216094970703125,0.03969055041670799,0.03969055041670799,0.03969055041670799,0.03969055041670799,0.03969055041670799,0.03969055041670799,0.03969055041670799,0.03969055041670799,0.03969055041670799,0.03969055041670799,0.03969055041670799,0.03969055041670799,0.03969055041670799,0.03969055041670799,0.03969055041670799,0.03969055041670799,0.03969055041670799,0.03969055041670799,0.03969055041670799,0.03969055041670799,0.03969055041670799,0.03969055041670799,0.03969055041670799,0.03969055041670799,0.03969055041670799,0.03969055041670799,0.03969055041670799,0.03969055041670799,0.03969055041670799,0.03969055041670799,0.03969055041670799,0.03969055041670799,0.03969055041670799,0.03969055041670799,0.03969055041670799,0.03969055041670799
48,0.77,-0.0,-0.0,-0.0,-0.0,-0.0,-0.0,-0.0,-0.0,-0.0,-0.0,-0.0,-0.0,-0.0,-0.0,-0.0,-0.0,-0.0,-0.0,-0.0,-0.0,-0.0,-0.0,-0.0,-0.0,-0.0,-0.0,-0.0,-0.0,-0.0,-0.0,0.0115966796875,-0.02532958984375,-0.01556396484375,0.02593994140625,0.00091552734375,-0.003662109375,-0.00244140625,0.0006103515625,0.0042724609375,-0.0177001953125,-0.0128173828125,-0.0384521484375,-0.009765625,-0.01800537109375,0.00457763671875,-0.008544921875,-0.0103759765625,0.013427734375,-0.01556396484375,0.00152587890625,-0.00335693359375,-0.00640869140625,-0.003662109375,-0.00457763671875,-0.0164794921875,0.0067138671875,-0.01708984375,0.01861572265625,0.001220703125,-0.00213623046875,-0.00701904296875,-0.00396728515625,-0.00152587890625,-0.00640869140625,-0.0030517578125,-0.00946044921875,0.00396728515625,-0.00244140625,-0.0067138671875,-0.01739501953125,-0.002705688588321209,-0.014288634993135929,-0.22823120653629303,0.07397369295358658,-0.04749755933880806,-0.10349243134260178,0.19471770524978638,-0.05717376619577408,-0.08931579440832138,-0.06583404541015625,0.029619751498103142,0.029619751498103142,0.029619751498103142,0.029619751498103142,0.029619751498103142,0.029619751498103142,0.029619751498103142,0.029619751498103142,0.029619751498103142,0.029619751498103142,0.029619751498103142,0.029619751498103142,0.029619751498103142,0.029619751498103142,0.029619751498103142,0.029619751498103142,0.029619751498103142,0.029619751498103142,0.029619751498103142,0.029619751498103142,0.029619751498103142,0.029619751498103142,0.029619751498103142,0.029619751498103142,0.029619751498103142,0.029619751498103142,0.029619751498103142,0.029619751498103142,0.029619751498103142,0.029619751498103142,0.029619751498103142,0.029619751498103142,0.029619751498103142,0.029619751498103142,0.029619751498103142,0.029619751498103142
49,0.771,-0.0,-0.0,-0.0,-0.0,-0.0,-0.0,-0.0,-0.0,-0.0,-0.0,-0.0,-0.0,-8.568367004394531,2.929311752319336,-26.299053192138672,-837.1968994140625,-402.2999572753906,331.0675354003906,-0.0,-0.0,-0.0,-0.0,-0.0,-0.0,-0.0,-0.0,-0.0,-0.0,-0.0,-0.0,0.01617431640625,-0.0213623046875,-0.018310546875,0.029296875,-0.0115966796875,-0.00518798828125,-0.00274658203125,-0.0018310546875,0.00244140625,-0.01312255859375,-0.01708984375,-0.04730224609375,-0.0067138671875,-0.01434326171875,-0.00030517578125,-0.0091552734375,0.029296875,0.0262451171875,-0.02349853515625,-0.008544921875,0.00762939453125,0.010986328125,0.00762939453125,0.003662109375,-0.02044677734375,0.00152587890625,-0.01678466796875,0.0201416015625,-0.00244140625,0.01312255859375,-0.00579833984375,-0.00030517578125,0.0042724609375,-0.00457763671875,-0.00030517578125,-0.008544921875,-0.0054931640625,-0.00701904296875,-0.008544921875,-0.01800537109375,-0.007741088978946209,-0.028784485533833504,-0.47588133811950684,-0.15353484451770782,-0.02766113355755806,0.08403808623552322,0.21989470720291138,0.02217193692922592,-0.11205139011144638,-0.07468414306640625,0.03801208361983299,0.03801208361983299,0.03801208361983299,0.03801208361983299,0.03801208361983299,0.03801208361983299,0.03801208361983299,0.03801208361983299,0.03801208361983299,0.03801208361983299,0.03801208361983299,0.03801208361983299,0.03801208361983299,0.03801208361983299,0.03801208361983299,0.03801208361983299,0.03801208361983299,0.03801208361983299,0.03801208361983299,0.03801208361983299,0.03801208361983299,0.03801208361983299,0.03801208361983299,0.03801208361983299,0.03801208361983299,0.03801208361983299,0.03801208361983299,0.03801208361983299,0.03801208361983299,0.03801208361983299,0.03801208361983299,0.03801208361983299,0.03801208361983299,0.03801208361983299,0.03801208361983299,0.03801208361983299
50,0.772,-0.0,-0.0,-0.0,-0.0,-0.0,-0.0,-0.0,-0.0,-0.0,-0.0,-0.0,-0.0,14.967304229736328,29.905153274536133,-164.09976196289062,-120.34390258789062,-4370.65087890625,-1442.9786376953125,-0.0,-0.0,-0.0,-0.0,-0.0,-0.0,-0.0,-0.0,-0.0,-0.0,-0.0,-0.0,0.020751953125,-0.01983642578125,-0.01678466796875,0.01190185546875,-0.00396728515625,-0.00396728515625,0.00762939453125,-0.00396728515625,-0.0091552734375,-0.00457763671875,-0.0262451171875,-0.0213623046875,-0.00732421875,-0.01190185546875,0.0,-0.0067138671875,-0.0860595703125,-0.03692626953125,-0.1129150390625,-0.123291015625,0.057373046875,0.0909423828125,0.09307861328125,0.054931640625,-0.01556396484375,0.00213623046875,-0.0146484375,0.01007080078125,-0.0048828125,-0.0054931640625,0.00152587890625,-0.0091552734375,0.00091552734375,-0.0054931640625,-0.00091552734375,-0.01068115234375,-0.0250244140625,-0.00640869140625,-0.00244140625,-0.0164794921875,0.2949932813644409,0.057580262422561646,-0.37288451194763184,-0.03665252774953842,-0.05833129957318306,0.020408935844898224,-0.025466613471508026,0.06031890958547592,-0.06184997409582138,-0.05591583251953125,0.030993042513728142,0.030993042513728142,0.030993042513728142,0.030993042513728142,0.030993042513728142,0.030993042513728142,0.030993042513728142,0.030993042513728142,0.030993042513728142,0.030993042513728142,0.030993042513728142,0.030993042513728142,0.030993042513728142,0.030993042513728142,0.030993042513728142,0.030993042513728142,0.030993042513728142,0.030993042513728142,0.030993042513728142,0.030993042513728142,0.030993042513728142,0.030993042513728142,0.030993042513728142,0.030993042513728142,0.030993042513728142,0.030993042513728142,0.030993042513728142,0.030993042513728142,0.030993042513728142,0.030993042513728142,0.030993042513728142,0.030993042513728142,0.030993042513728142,0.030993042513728142,0.030993042513728142,0.030993042513728142
51,0.773,-0.0,-0.0,-0.0,-0.0,-0.0,-0.0,-0.0,-0.0,-0.0,-0.0,-0.0,-0.0,38.70268630981445,90.59457397460938,-296.22149658203125,2747.4306640625,-7885.33642578125,-2308.880126953125,-0.0,-0.0,-0.0,-0.0,-0.0,-0.0,-0.0,-0.0,-0.0,-0.0,-0.0,-0.0,0.01373291015625,-0.01922607421875,-0.01495361328125,0.0225830078125,-0.00885009765625,-0.0054931640625,-0.00457763671875,-0.00457763671875,-0.02166748046875,0.00274658203125,-0.04638671875,-0.00946044921875,-0.00823974609375,-0.0091552734375,-0.0042724609375,-0.0018310546875,-0.18157958984375,-0.1214599609375,-0.3240966796875,-0.37139892578125,0.09735107421875,0.164794921875,0.17547607421875,0.1141357421875,-0.02105712890625,-0.00244140625,-0.01708984375,0.0079345703125,-0.0042724609375,-0.0048828125,0.00091552734375,-0.00396728515625,0.0,-0.0128173828125,-0.0048828125,-0.0128173828125,-0.00732421875,-0.0091552734375,-0.00030517578125,-0.0042724609375,0.018351441249251366,0.07070282101631165,0.21030639111995697,0.06161407381296158,0.04374999925494194,0.08464843779802322,-0.060104064643383026,0.03331085294485092,-0.06581725925207138,-0.03653717041015625,0.025499878451228142,0.025499878451228142,0.025499878451228142,0.025499878451228142,0.025499878451228142,0.025499878451228142,0.025499878451228142,0.025499878451228142,0.025499878451228142,0.025499878451228142,0.025499878451228142,0.025499878451228142,0.025499878451228142,0.025499878451228142,0.025499878451228142,0.025499878451228142,0.025499878451228142,0.025499878451228142,0.025499878451228142,0.025499878451228142,0.025499878451228142,0.025499878451228142,0.025499878451228142,0.025499878451228142,0.025499878451228142,0.025499878451228142,0.025499878451228142,0.025499878451228142,0.025499878451228142,0.025499878451228142,0.025499878451228142,0.025499878451228142,0.025499878451228142,0.025499878451228142,0.025499878451228142,0.025499878451228142
52,0.774,-0.0,-0.0,-0.0,-0.0,-0.0,-0.0,-0.0,-0.0,-0.0,-0.0,-0.0,-0.0,66.05867004394531,119.83369445800781,-454.0871887207031,5010.66650390625,-11072.087890625,-2599.70849609375,-0.0,-0.0,-0.0,-0.0,-0.0,-0.0,-0.0,-0.0,-0.0,-0.0,-0.0,-0.0,0.01617431640625,-0.03448486328125,-0.0177001953125,0.0177001953125,-0.0274658203125,-0.00457763671875,-0.0042724609375,-0.01251220703125,-0.02777099609375,0.02044677734375,-0.07049560546875,0.0152587890625,-0.009765625,0.0006103515625,-0.00640869140625,-0.00091552734375,-0.29083251953125,-0.2197265625,-0.4345703125,-0.482177734375,0.1568603515625,0.24688720703125,0.27191162109375,0.1812744140625,-0.01068115234375,-0.001220703125,-0.01495361328125,-0.00030517578125,-0.0177001953125,-0.00457763671875,-0.0079345703125,-0.00762939453125,-0.00152587890625,-0.0067138671875,0.00335693359375,-0.0091552734375,-0.0006103515625,0.00885009765625,-0.0030517578125,-0.00396728515625,0.025370484218001366,0.08825042843818665,0.7298681735992432,0.329405814409256,0.03673095628619194,0.19283324480056763,-0.07978790253400803,0.01805206388235092,-0.05071105808019638,-0.01715850830078125,0.03343444690108299,0.03343444690108299,0.03343444690108299,0.03343444690108299,0.03343444690108299,0.03343444690108299,0.03343444690108299,0.03343444690108299,0.03343444690108299,0.03343444690108299,0.03343444690108299,0.03343444690108299,0.03343444690108299,0.03343444690108299,0.03343444690108299,0.03343444690108299,0.03343444690108299,0.03343444690108299,0.03343444690108299,0.03343444690108299,0.03343444690108299,0.03343444690108299,0.03343444690108299,0.03343444690108299,0.03343444690108299,0.03343444690108299,0.03343444690108299,0.03343444690108299,0.03343444690108299,0.03343444690108299,0.03343444690108299,0.03343444690108299,0.03343444690108299,0.03343444690108299,0.03343444690108299,0.03343444690108299
53,0.775,-0.0,-0.0,-0.0,-0.0,-0.0,-0.0,-0.0,-0.0,-0.0,-0.0,-0.0,-0.0,71.44828796386719,85.957275390625,-636.6182861328125,3611.6728515625,-12662.416015625,-1759.3427734375,-0.0,-0.0,-0.0,-0.0,-0.0,-0.0,-0.0,-0.0,-0.0,-0.0,-0.0,-0.0,0.010986328125,-0.020751953125,-0.0079345703125,0.01678466796875,-0.0115966796875,-0.006103515625,-0.0042724609375,-0.00244140625,-0.04150390625,0.02685546875,-0.07720947265625,0.03753662109375,-0.0128173828125,-0.003662109375,-0.00640869140625,0.003662109375,-0.29632568359375,-0.255126953125,-0.3082275390625,-0.3521728515625,0.24078369140625,0.3460693359375,0.36224365234375,0.2606201171875,-0.00823974609375,-0.0146484375,-0.013427734375,-0.001220703125,0.00244140625,-0.0018310546875,0.0,-0.0042724609375,0.00030517578125,-0.0079345703125,-0.001220703125,-0.009765625,-0.0048828125,-0.0079345703125,-0.00701904296875,-0.0048828125,0.010874633677303791,0.005242614541202784,0.025980224832892418,0.320708304643631,0.03673095628619194,0.08861572295427322,-0.06788604706525803,-0.05488494783639908,-0.03758849948644638,-0.02463531494140625,0.03190856799483299,0.03190856799483299,0.03190856799483299,0.03190856799483299,0.03190856799483299,0.03190856799483299,0.03190856799483299,0.03190856799483299,0.03190856799483299,0.03190856799483299,0.03190856799483299,0.03190856799483299,0.03190856799483299,0.03190856799483299,0.03190856799483299,0.03190856799483299,0.03190856799483299,0.03190856799483299,0.03190856799483299,0.03190856799483299,0.03190856799483299,0.03190856799483299,0.03190856799483299,0.03190856799483299,0.03190856799483299,0.03190856799483299,0.03190856799483299,0.03190856799483299,0.03190856799483299,0.03190856799483299,0.03190856799483299,0.03190856799483299,0.03190856799483299,0.03190856799483299,0.03190856799483299,0.03190856799483299
54,0.776,-0.0,-0.0,-0.0,-0.0,-0.0,-0.0,-0.0,-0.0,-0.0,-0.0,-0.0,-0.0,42.92445373535156,59.54300308227539,-782.0938720703125,-406.10076904296875,-10793.2666015625,-397.5092468261719,-0.0,-0.0,-0.0,-0.0,-0.0,-0.0,-0.0,-0.0,-0.0,-0.0,-0.0,-0.0,0.01007080078125,-0.02044677734375,-0.0164794921875,0.0146484375,-0.00457763671875,-0.0067138671875,-0.00213623046875,-0.00732421875,-0.05218505859375,0.0335693359375,-0.08575439453125,0.04638671875,-0.00946044921875,-0.0054931640625,-0.0115966796875,0.00274658203125,-0.16510009765625,-0.16998291015625,-0.2130126953125,-0.24749755859375,0.32806396484375,0.418701171875,0.41534423828125,0.32867431640625,-0.00579833984375,-0.00244140625,-0.00579833984375,-0.00274658203125,-0.00274658203125,-0.00213623046875,-0.00457763671875,-0.0091552734375,0.00762939453125,-0.00579833984375,0.00213623046875,-0.01556396484375,-0.00732421875,-0.00274658203125,-0.0067138671875,0.00091552734375,0.012400512583553791,0.040032655000686646,-0.5599572658538818,-0.15567107498645782,0.03306884691119194,0.11028320342302322,-0.4243313670158386,-0.16520600020885468,-0.02675476111471653,-0.01044464111328125,0.018480835482478142,0.018480835482478142,0.018480835482478142,0.018480835482478142,0.018480835482478142,0.018480835482478142,0.018480835482478142,0.018480835482478142,0.018480835482478142,0.018480835482478142,0.018480835482478142,0.018480835482478142,0.018480835482478142,0.018480835482478142,0.018480835482478142,0.018480835482478142,0.018480835482478142,0.018480835482478142,0.018480835482478142,0.018480835482478142,0.018480835482478142,0.018480835482478142,0.018480835482478142,0.018480835482478142,0.018480835482478142,0.018480835482478142,0.018480835482478142,0.018480835482478142,0.018480835482478142,0.018480835482478142,0.018480835482478142,0.018480835482478142,0.018480835482478142,0.018480835482478142,0.018480835482478142,0.018480835482478142
55,0.777,-0.0,-0.0,-0.0,-0.0,-0.0,-0.0,-0.0,-0.0,-0.0,-0.0,-0.0,-0.0,18.66407012939453,72.21058654785156,-928.2061767578125,-505.89935302734375,-8317.0859375,1761.4595947265625,-0.0,-0.0,-0.0,-0.0,-0.0,-0.0,-0.0,-0.0,-0.0,-0.0,-0.0,-0.0,0.01068115234375,-0.01922607421875,-0.03173828125,0.0152587890625,-0.00762939453125,0.00152587890625,-0.003662109375,-0.00701904296875,-0.0543212890625,0.04241943359375,-0.0946044921875,0.0531005859375,-0.0146484375,-0.00335693359375,-0.00701904296875,-0.003662109375,-0.0384521484375,-0.11260986328125,-0.27130126953125,-0.2850341796875,0.40679931640625,0.4815673828125,0.47393798828125,0.4107666015625,-0.0048828125,0.01312255859375,-0.0042724609375,-0.00457763671875,-0.00213623046875,-0.00640869140625,-0.0067138671875,-0.0091552734375,-0.0018310546875,-0.00579833984375,0.0018310546875,-0.010986328125,-0.00457763671875,-0.00335693359375,0.00244140625,-0.0067138671875,0.0009564209030941129,0.046441346406936646,-0.32405638694763184,0.002715148963034153,0.04329223558306694,0.06588012725114822,-0.07933013886213303,0.06031890958547592,-0.02095642127096653,-0.00128936767578125,0.021380005404353142,0.021380005404353142,0.021380005404353142,0.021380005404353142,0.021380005404353142,0.021380005404353142,0.021380005404353142,0.021380005404353142,0.021380005404353142,0.021380005404353142,0.021380005404353142,0.021380005404353142,0.021380005404353142,0.021380005404353142,0.021380005404353142,0.021380005404353142,0.021380005404353142,0.021380005404353142,0.021380005404353142,0.021380005404353142,0.021380005404353142,0.021380005404353142,0.021380005404353142,0.021380005404353142,0.021380005404353142,0.021380005404353142,0.021380005404353142,0.021380005404353142,0.021380005404353142,0.021380005404353142,0.021380005404353142,0.021380005404353142,0.021380005404353142,0.021380005404353142,0.021380005404353142,0.021380005404353142
56,0.778,-0.0,-0.0,-0.0,-0.0,-0.0,-0.0,-0.0,-0.0,-0.0,-0.0,-0.0,-0.0,9.970786094665527,101.45826721191406,-1048.399658203125,3118.142333984375,-6679.4296875,5397.41552734375,-0.0,-0.0,-0.0,-0.0,-0.0,-0.0,-0.0,-0.0,-0.0,-0.0,-0.0,-0.0,0.0140380859375,-0.02105712890625,-0.02227783203125,0.01434326171875,-0.01190185546875,-0.00518798828125,-0.00335693359375,-0.00274658203125,-0.05767822265625,0.04486083984375,-0.0970458984375,0.0634765625,-0.015869140625,-0.003662109375,-0.01068115234375,0.0030517578125,0.050048828125,-0.13519287109375,-0.404052734375,-0.37353515625,0.46600341796875,0.52093505859375,0.5377197265625,0.48065185546875,-0.0042724609375,-0.006103515625,-0.0030517578125,-0.0067138671875,0.00823974609375,-0.001220703125,-0.001220703125,-0.00762939453125,0.0006103515625,-0.0067138671875,0.00244140625,-0.01251220703125,-0.0030517578125,0.0,-0.0042724609375,-0.00457763671875,0.021555786952376366,0.037743836641311646,0.004160156473517418,-0.002625427208840847,0.03657836839556694,-0.18375366926193237,0.021377868950366974,0.17277617752552032,-0.02141418494284153,-0.00601959228515625,0.009172973223030567,0.009172973223030567,0.009172973223030567,0.009172973223030567,0.009172973223030567,0.009172973223030567,0.009172973223030567,0.009172973223030567,0.009172973223030567,0.009172973223030567,0.009172973223030567,0.009172973223030567,0.009172973223030567,0.009172973223030567,0.009172973223030567,0.009172973223030567,0.009172973223030567,0.009172973223030567,0.009172973223030567,0.009172973223030567,0.009172973223030567,0.009172973223030567,0.009172973223030567,0.009172973223030567,0.009172973223030567,0.009172973223030567,0.009172973223030567,0.009172973223030567,0.009172973223030567,0.009172973223030567,0.009172973223030567,0.009172973223030567,0.009172973223030567,0.009172973223030567,0.009172973223030567,0.009172973223030567
57,0.779,-0.0,-0.0,-0.0,-0.0,-0.0,-0.0,-0.0,-0.0,-0.0,-0.0,-0.0,-0.0,-10.265803337097168,132.6392059326172,-1125.34619140625,7190.0458984375,-3649.024658203125,7027.17138671875,-0.0,-0.0,-0.0,-0.0,-0.0,-0.0,-0.0,-0.0,-0.0,-0.0,-0.0,-0.0,0.01312255859375,-0.02197265625,-0.0189208984375,0.01678466796875,-0.00762939453125,-0.00823974609375,-0.0042724609375,-0.00396728515625,-0.0592041015625,0.04364013671875,-0.10040283203125,0.0616455078125,-0.0152587890625,-0.0030517578125,-0.00823974609375,0.00335693359375,0.1483154296875,-0.0799560546875,-0.53741455078125,-0.47607421875,0.50506591796875,0.5364990234375,0.57220458984375,0.5401611328125,-0.00091552734375,-0.0054931640625,0.00274658203125,-0.00396728515625,0.0006103515625,0.00274658203125,-0.0030517578125,-0.0067138671875,0.0006103515625,-0.0048828125,0.0006103515625,-0.015869140625,-0.006103515625,-0.00457763671875,0.00152587890625,-0.0067138671875,0.013773803599178791,0.08123138546943665,0.04154418781399727,-0.14071746170520782,0.08861084282398224,-0.23868530988693237,0.6607211232185364,0.18910308182239532,-0.01347961463034153,-0.00174713134765625,0.025194702669978142,0.025194702669978142,0.025194702669978142,0.025194702669978142,0.025194702669978142,0.025194702669978142,0.025194702669978142,0.025194702669978142,0.025194702669978142,0.025194702669978142,0.025194702669978142,0.025194702669978142,0.025194702669978142,0.025194702669978142,0.025194702669978142,0.025194702669978142,0.025194702669978142,0.025194702669978142,0.025194702669978142,0.025194702669978142,0.025194702669978142,0.025194702669978142,0.025194702669978142,0.025194702669978142,0.025194702669978142,0.025194702669978142,0.025194702669978142,0.025194702669978142,0.025194702669978142,0.025194702669978142,0.025194702669978142,0.025194702669978142,0.025194702669978142,0.025194702669978142,0.025194702669978142,0.025194702669978142
58,0.78,-0.0,-0.0,-0.0,-0.0,-0.0,-0.0,-0.0,-0.0,-0.0,-0.0,-0.0,-0.0,-24.024398803710938,132.23883056640625,-1161.548095703125,11075.482421875,-817.1046142578125,7527.271484375,-0.0,-0.0,-0.0,-0.0,-0.0,-0.0,-0.0,-0.0,-0.0,-0.0,-0.0,-0.0,0.01312255859375,-0.01800537109375,-0.0250244140625,0.01708984375,-0.0103759765625,-0.00762939453125,-0.001220703125,-0.0018310546875,-0.05889892578125,0.04302978515625,-0.096435546875,0.0634765625,-0.0128173828125,-0.0079345703125,-0.00762939453125,0.00244140625,0.20538330078125,-0.03265380859375,-0.54351806640625,-0.4669189453125,0.52276611328125,0.53497314453125,0.5859375,0.58013916015625,-0.00823974609375,-0.0067138671875,-0.0030517578125,-0.01068115234375,0.0018310546875,-0.00396728515625,-0.00213623046875,-0.00335693359375,0.006103515625,-0.01190185546875,0.0018310546875,-0.0140380859375,-0.0018310546875,-0.00579833984375,-0.00335693359375,-0.006103515625,-0.0019427490187808871,0.037133485078811646,0.025064697489142418,-0.289185494184494,0.04130859300494194,0.15361815690994263,0.3677523732185364,-0.12293914705514908,-0.00829162634909153,0.00359344482421875,0.027330933138728142,0.027330933138728142,0.027330933138728142,0.027330933138728142,0.027330933138728142,0.027330933138728142,0.027330933138728142,0.027330933138728142,0.027330933138728142,0.027330933138728142,0.027330933138728142,0.027330933138728142,0.027330933138728142,0.027330933138728142,0.027330933138728142,0.027330933138728142,0.027330933138728142,0.027330933138728142,0.027330933138728142,0.027330933138728142,0.027330933138728142,0.027330933138728142,0.027330933138728142,0.027330933138728142,0.027330933138728142,0.027330933138728142,0.027330933138728142,0.027330933138728142,0.027330933138728142,0.027330933138728142,0.027330933138728142,0.027330933138728142,0.027330933138728142,0.027330933138728142,0.027330933138728142,0.027330933138728142
59,0.781,-0.0,-0.0,-0.0,-0.0,-0.0,-0.0,-0.0,-0.0,-0.0,-0.0,-0.0,-0.0,-32.0700569152832,126.63502502441406,-1205.0054931640625,16350.1728515625,1561.798095703125,7615.64599609375,-0.0,-0.0,-0.0,-0.0,-0.0,-0.0,-0.0,-0.0,-0.0,-0.0,-0.0,-0.0,0.015869140625,-0.02288818359375,-0.02471923828125,0.020751953125,-0.01007080078125,-0.00701904296875,-0.00274658203125,-0.00213623046875,-0.05828857421875,0.03692626953125,-0.09521484375,0.06561279296875,-0.01434326171875,-0.00518798828125,-0.0115966796875,-0.0006103515625,0.234375,-0.0006103515625,-0.52764892578125,-0.44036865234375,0.53863525390625,0.53558349609375,0.60821533203125,0.62530517578125,-0.0030517578125,-0.0054931640625,-0.00152587890625,-0.00732421875,0.00274658203125,-0.00885009765625,-0.00732421875,0.00152587890625,0.0030517578125,-0.01068115234375,-0.0030517578125,-0.01190185546875,-0.00244140625,-0.00274658203125,-0.00335693359375,-0.00640869140625,-0.024220580235123634,0.0021908569615334272,-0.0025537109468132257,-0.09295745939016342,0.04100341722369194,0.3506091237068176,-0.09657257050275803,-0.10142425447702408,-0.0031036376021802425,-0.00128936767578125,0.019243774935603142,0.019243774935603142,0.019243774935603142,0.019243774935603142,0.019243774935603142,0.019243774935603142,0.019243774935603142,0.019243774935603142,0.019243774935603142,0.019243774935603142,0.019243774935603142,0.019243774935603142,0.019243774935603142,0.019243774935603142,0.019243774935603142,0.019243774935603142,0.019243774935603142,0.019243774935603142,0.019243774935603142,0.019243774935603142,0.019243774935603142,0.019243774935603142,0.019243774935603142,0.019243774935603142,0.019243774935603142,0.019243774935603142,0.019243774935603142,0.019243774935603142,0.019243774935603142,0.019243774935603142,0.019243774935603142,0.019243774935603142,0.019243774935603142,0.019243774935603142,0.019243774935603142,0.019243774935603142
60,0.782,-0.0,-0.0,-0.0,-0.0,-0.0,-0.0,-0.0,-0.0,-0.0,-0.0,-0.0,-0.0,-34.925296783447266,115.02084350585938,-1245.59326171875,18844.865234375,1893.0247802734375,6917.177734375,-0.0,-0.0,-0.0,-0.0,-0.0,-0.0,-0.0,-0.0,-0.0,-0.0,-0.0,-0.0,0.0140380859375,-0.02227783203125,-0.02655029296875,0.01678466796875,-0.00762939453125,-0.00518798828125,-0.00091552734375,-0.0091552734375,-0.05889892578125,0.0469970703125,-0.09552001953125,0.0665283203125,-0.0146484375,0.01068115234375,-0.013427734375,0.00244140625,0.230712890625,0.02471923828125,-0.48583984375,-0.394287109375,0.55145263671875,0.5499267578125,0.6304931640625,0.654296875,0.0006103515625,-0.00244140625,-0.00091552734375,-0.008544921875,0.001220703125,-0.00701904296875,-0.00091552734375,-0.00701904296875,0.00030517578125,-0.0042724609375,0.0018310546875,-0.00823974609375,-0.0079345703125,-0.0067138671875,-0.00640869140625,-0.0213623046875,0.030863648280501366,0.050408631563186646,0.11066650599241257,0.16339020431041718,0.03383178636431694,1.0577014684677124,-1.6140590906143188,0.18849273025989532,0.0010162353282794356,0.00069427490234375,0.017565308138728142,0.017565308138728142,0.017565308138728142,0.017565308138728142,0.017565308138728142,0.017565308138728142,0.017565308138728142,0.017565308138728142,0.017565308138728142,0.017565308138728142,0.017565308138728142,0.017565308138728142,0.017565308138728142,0.017565308138728142,0.017565308138728142,0.017565308138728142,0.017565308138728142,0.017565308138728142,0.017565308138728142,0.017565308138728142,0.017565308138728142,0.017565308138728142,0.017565308138728142,0.017565308138728142,0.017565308138728142,0.017565308138728142,0.017565308138728142,0.017565308138728142,0.017565308138728142,0.017565308138728142,0.017565308138728142,0.017565308138728142,0.017565308138728142,0.017565308138728142,0.017565308138728142,0.017565308138728142
61,0.783,-0.0,-0.0,-0.0,-0.0,-0.0,-0.0,-0.0,-0.0,-0.0,-0.0,-0.0,-0.0,-24.4255428314209,95.217041015625,-1299.1309814453125,20579.755859375,2264.952392578125,6739.00390625,-0.0,-0.0,-0.0,-0.0,-0.0,-0.0,-0.0,-0.0,-0.0,-0.0,-0.0,-0.0,0.013427734375,-0.03692626953125,-0.025634765625,0.01373291015625,-0.0018310546875,-0.0054931640625,-0.00213623046875,-0.00274658203125,-0.0665283203125,0.050048828125,-0.11688232421875,0.072021484375,-0.01373291015625,0.0048828125,-0.0140380859375,0.0042724609375,0.1904296875,-0.0146484375,-0.40618896484375,-0.3240966796875,0.57403564453125,0.5706787109375,0.6585693359375,0.68634033203125,-0.00213623046875,-0.00579833984375,-0.00091552734375,-0.0067138671875,0.00152587890625,-0.0042724609375,-0.0006103515625,-0.0079345703125,0.003662109375,-0.008544921875,-0.0018310546875,-0.00732421875,-0.0048828125,-0.00823974609375,-0.00518798828125,-0.0006103515625,-0.009419555775821209,0.052850037813186646,0.15094970166683197,0.270812064409256,0.02940673753619194,-0.4745861887931824,0.7010043263435364,-0.03382781893014908,0.0034576416946947575,-0.32111358642578125,0.018023071810603142,0.018023071810603142,0.018023071810603142,0.018023071810603142,0.018023071810603142,0.018023071810603142,0.018023071810603142,0.018023071810603142,0.018023071810603142,0.018023071810603142,0.018023071810603142,0.018023071810603142,0.018023071810603142,0.018023071810603142,0.018023071810603142,0.018023071810603142,0.018023071810603142,0.018023071810603142,0.018023071810603142,0.018023071810603142,0.018023071810603142,0.018023071810603142,0.018023071810603142,0.018023071810603142,0.018023071810603142,0.018023071810603142,0.018023071810603142,0.018023071810603142,0.018023071810603142,0.018023071810603142,0.018023071810603142,0.018023071810603142,0.018023071810603142,0.018023071810603142,0.018023071810603142,0.018023071810603142
62,0.784,-0.0,-0.0,-0.0,-0.0,-0.0,-0.0,-0.0,-0.0,-0.0,-0.0,-0.0,-0.0,-20.965248107910156,68.88096618652344,-1343.516845703125,22124.708984375,3165.556640625,6214.33837890625,-0.0,-0.0,-0.0,-0.0,-0.0,-0.0,-0.0,-0.0,-0.0,-0.0,-0.0,-0.0,0.0164794921875,-0.020751953125,-0.01495361328125,0.01251220703125,-0.00823974609375,-0.00762939453125,-0.001220703125,-0.00335693359375,-0.07080078125,0.05157470703125,-0.11016845703125,0.06561279296875,-0.01678466796875,-0.001220703125,-0.013427734375,0.00396728515625,0.16845703125,-0.0189208984375,-0.30487060546875,-0.22613525390625,0.5963134765625,0.58380126953125,0.68115234375,0.714111328125,-0.00244140625,-0.00213623046875,-0.00091552734375,-0.010986328125,0.0048828125,-0.0042724609375,-0.00335693359375,-0.0030517578125,0.00244140625,-0.006103515625,0.00030517578125,-0.0103759765625,-0.00518798828125,-0.00732421875,-0.0079345703125,-0.0048828125,0.003245239146053791,0.041100770235061646,0.14637206494808197,0.06298736482858658,0.09776611626148224,-0.6532666087150574,0.3917086720466614,-0.07136444002389908,0.01154479943215847,0.38704681396484375,0.03312927111983299,0.03312927111983299,0.03312927111983299,0.03312927111983299,0.03312927111983299,0.03312927111983299,0.03312927111983299,0.03312927111983299,0.03312927111983299,0.03312927111983299,0.03312927111983299,0.03312927111983299,0.03312927111983299,0.03312927111983299,0.03312927111983299,0.03312927111983299,0.03312927111983299,0.03312927111983299,0.03312927111983299,0.03312927111983299,0.03312927111983299,0.03312927111983299,0.03312927111983299,0.03312927111983299,0.03312927111983299,0.03312927111983299,0.03312927111983299,0.03312927111983299,0.03312927111983299,0.03312927111983299,0.03312927111983299,0.03312927111983299,0.03312927111983299,0.03312927111983299,0.03312927111983299,0.03312927111983299
63,0.785,-0.0,-0.0,-0.0,-0.0,-0.0,-0.0,-0.0,-0.0,-0.0,-0.0,-0.0,-0.0,-13.642904281616211,41.293548583984375,-1389.93212890625,22438.240234375,2341.845947265625,5532.93212890625,-0.0,-0.0,-0.0,-0.0,-0.0,-0.0,-0.0,-0.0,-0.0,-0.0,-0.0,-0.0,0.013427734375,-0.02288818359375,-0.0262451171875,0.01007080078125,-0.01068115234375,-0.01739501953125,-0.00030517578125,-0.003662109375,-0.0653076171875,0.057373046875,-0.11505126953125,0.08636474609375,-0.0189208984375,-0.001220703125,-0.01495361328125,0.006103515625,0.130615234375,-0.03662109375,-0.1959228515625,-0.1263427734375,0.614013671875,0.60943603515625,0.70709228515625,0.73455810546875,-0.0030517578125,-0.01434326171875,-0.0006103515625,-0.009765625,0.0030517578125,-0.008544921875,-0.0006103515625,-0.01007080078125,-0.0006103515625,-0.00244140625,0.00335693359375,-0.00946044921875,-0.003662109375,-0.008544921875,-0.0042724609375,-0.0018310546875,0.017893677577376366,0.026452330872416496,0.09739135950803757,-0.003998718224465847,0.09410400688648224,-0.22174805402755737,0.06959564238786697,0.09831329435110092,-0.01149597205221653,0.48989105224609375,0.021990356966853142,0.021990356966853142,0.021990356966853142,0.021990356966853142,0.021990356966853142,0.021990356966853142,0.021990356966853142,0.021990356966853142,0.021990356966853142,0.021990356966853142,0.021990356966853142,0.021990356966853142,0.021990356966853142,0.021990356966853142,0.021990356966853142,0.021990356966853142,0.021990356966853142,0.021990356966853142,0.021990356966853142,0.021990356966853142,0.021990356966853142,0.021990356966853142,0.021990356966853142,0.021990356966853142,0.021990356966853142,0.021990356966853142,0.021990356966853142,0.021990356966853142,0.021990356966853142,0.021990356966853142,0.021990356966853142,0.021990356966853142,0.021990356966853142,0.021990356966853142,0.021990356966853142,0.021990356966853142
